"subj","phase","block","trial","stim","resp","rt","pstimL","pstimR","outcome","date"
1,2,1,1,"A",10,7.481,"banana","","","2016_Oct_18_1421"
1,2,1,2,"B",7,13.749,"","strawberry","","2016_Oct_18_1421"
1,2,1,3,"AC",10,6.89,"banana","pear","","2016_Oct_18_1421"
1,2,1,4,"A",10,2.661,"","banana","","2016_Oct_18_1421"
1,2,1,5,"BC",3,13.106,"strawberry","pear","","2016_Oct_18_1421"
1,2,1,6,"XY",3,7.615,"apple","orange","","2016_Oct_18_1421"
1,2,1,7,"Y",0,3.568,"","orange","","2016_Oct_18_1421"
1,2,1,8,"Y",0,2.599,"orange","","","2016_Oct_18_1421"
1,2,1,9,"C",0,1.632,"","pear","","2016_Oct_18_1421"
1,2,1,10,"AB",10,3.458,"strawberry","banana","","2016_Oct_18_1421"
1,2,1,11,"AY",10,9.49,"orange","banana","","2016_Oct_18_1421"
1,2,1,12,"AC",10,1.817,"pear","banana","","2016_Oct_18_1421"
1,2,1,13,"BY",7,3.464,"orange","strawberry","","2016_Oct_18_1421"
1,2,1,14,"B",5,4.04,"strawberry","","","2016_Oct_18_1421"
1,2,1,15,"AB",10,3.554,"banana","strawberry","","2016_Oct_18_1421"
1,2,1,16,"XY",5,7.226,"orange","apple","","2016_Oct_18_1421"
1,2,1,17,"BC",5,2.802,"pear","strawberry","","2016_Oct_18_1421"
1,2,1,18,"CY",0,3.021,"pear","orange","","2016_Oct_18_1421"
1,2,1,19,"BX",5,3.114,"strawberry","apple","","2016_Oct_18_1421"
1,2,1,20,"CX",5,6.521,"pear","apple","","2016_Oct_18_1421"
1,2,1,21,"AX",10,3.818,"apple","banana","","2016_Oct_18_1421"
1,2,1,22,"X",5,2.255,"","apple","","2016_Oct_18_1421"
1,2,1,23,"CY",0,2.193,"orange","pear","","2016_Oct_18_1421"
1,2,1,24,"CX",5,6.083,"apple","pear","","2016_Oct_18_1421"
1,2,1,25,"C",0,4.07,"pear","","","2016_Oct_18_1421"
1,2,1,26,"BX",5,5.287,"apple","strawberry","","2016_Oct_18_1421"
1,2,1,27,"AX",10,8.022,"banana","apple","","2016_Oct_18_1421"
1,2,1,28,"X",5,2.851,"apple","","","2016_Oct_18_1421"
1,2,1,29,"AY",10,2.068,"banana","orange","","2016_Oct_18_1421"
1,2,1,30,"BY",5,4.85,"strawberry","orange","","2016_Oct_18_1421"
1,2,2,31,"CX",5,1.24,"pear","apple","","2016_Oct_18_1421"
1,2,2,32,"AC",10,2.724,"pear","banana","","2016_Oct_18_1421"
1,2,2,33,"BY",5,2.82,"orange","strawberry","","2016_Oct_18_1421"
1,2,2,34,"CY",0,3.286,"pear","orange","","2016_Oct_18_1421"
1,2,2,35,"BC",5,2.833,"strawberry","pear","","2016_Oct_18_1421"
1,2,2,36,"BY",5,3.224,"strawberry","orange","","2016_Oct_18_1421"
1,2,2,37,"B",5,1.927,"strawberry","","","2016_Oct_18_1421"
1,2,2,38,"Y",0,3.445,"orange","","","2016_Oct_18_1421"
1,2,2,39,"CY",0,2.536,"orange","pear","","2016_Oct_18_1421"
1,2,2,40,"AB",10,4.318,"banana","strawberry","","2016_Oct_18_1421"
1,2,2,41,"AX",10,2.07,"banana","apple","","2016_Oct_18_1421"
1,2,2,42,"CX",5,7.074,"apple","pear","","2016_Oct_18_1421"
1,2,2,43,"AC",10,1.724,"banana","pear","","2016_Oct_18_1421"
1,2,2,44,"Y",0,2.414,"","orange","","2016_Oct_18_1421"
1,2,2,45,"C",0,1.927,"pear","","","2016_Oct_18_1421"
1,2,2,46,"XY",5,6.929,"apple","orange","","2016_Oct_18_1421"
1,2,2,47,"BX",5,4.371,"strawberry","apple","","2016_Oct_18_1421"
1,2,2,48,"AY",10,1.761,"banana","orange","","2016_Oct_18_1421"
1,2,2,49,"B",5,6.505,"","strawberry","","2016_Oct_18_1421"
1,2,2,50,"A",10,2.599,"banana","","","2016_Oct_18_1421"
1,2,2,51,"XY",5,21.751,"orange","apple","","2016_Oct_18_1421"
1,2,2,52,"AB",10,2.648,"strawberry","banana","","2016_Oct_18_1421"
1,2,2,53,"X",5,2.821,"","apple","","2016_Oct_18_1421"
1,2,2,54,"AY",10,2.693,"orange","banana","","2016_Oct_18_1421"
1,2,2,55,"AX",10,1.146,"apple","banana","","2016_Oct_18_1421"
1,2,2,56,"C",0,2.552,"","pear","","2016_Oct_18_1421"
1,2,2,57,"A",10,1.911,"","banana","","2016_Oct_18_1421"
1,2,2,58,"BC",5,3.161,"pear","strawberry","","2016_Oct_18_1421"
1,2,2,59,"X",5,1.271,"apple","","","2016_Oct_18_1421"
1,2,2,60,"BX",5,3.68,"apple","strawberry","","2016_Oct_18_1421"
1,2,3,61,"CX",5,3.193,"pear","apple","","2016_Oct_18_1421"
1,2,3,62,"BX",5,5.492,"strawberry","apple","","2016_Oct_18_1421"
1,2,3,63,"XY",5,2.508,"orange","apple","","2016_Oct_18_1421"
1,2,3,64,"AB",10,1.586,"banana","strawberry","","2016_Oct_18_1421"
1,2,3,65,"BY",5,6.056,"orange","strawberry","","2016_Oct_18_1421"
1,2,3,66,"B",5,2.286,"","strawberry","","2016_Oct_18_1421"
1,2,3,67,"AX",10,1.724,"apple","banana","","2016_Oct_18_1421"
1,2,3,68,"CY",0,5.959,"orange","pear","","2016_Oct_18_1421"
1,2,3,69,"X",5,2.684,"apple","","","2016_Oct_18_1421"
1,2,3,70,"AC",10,2.505,"pear","banana","","2016_Oct_18_1421"
1,2,3,71,"C",0,2.804,"pear","","","2016_Oct_18_1421"
1,2,3,72,"CX",5,4.57,"apple","pear","","2016_Oct_18_1421"
1,2,3,73,"XY",5,1.503,"apple","orange","","2016_Oct_18_1421"
1,2,3,74,"Y",0,1.804,"","orange","","2016_Oct_18_1421"
1,2,3,75,"A",10,2.052,"banana","","","2016_Oct_18_1421"
1,2,3,76,"A",10,1.63,"","banana","","2016_Oct_18_1421"
1,2,3,77,"BC",5,2.271,"strawberry","pear","","2016_Oct_18_1421"
1,2,3,78,"BX",5,2.305,"apple","strawberry","","2016_Oct_18_1421"
1,2,3,79,"Y",0,2.352,"orange","","","2016_Oct_18_1421"
1,2,3,80,"C",0,0.989,"","pear","","2016_Oct_18_1421"
1,2,3,81,"X",5,1.85,"","apple","","2016_Oct_18_1421"
1,2,3,82,"BC",5,7.255,"pear","strawberry","","2016_Oct_18_1421"
1,2,3,83,"AY",10,1.677,"banana","orange","","2016_Oct_18_1421"
1,2,3,84,"AY",10,1.146,"orange","banana","","2016_Oct_18_1421"
1,2,3,85,"AX",10,1.429,"banana","apple","","2016_Oct_18_1421"
1,2,3,86,"CY",0,2.458,"pear","orange","","2016_Oct_18_1421"
1,2,3,87,"BY",10,10.474,"strawberry","orange","","2016_Oct_18_1421"
1,2,3,88,"AB",10,1.255,"strawberry","banana","","2016_Oct_18_1421"
1,2,3,89,"AC",10,1.49,"banana","pear","","2016_Oct_18_1421"
1,2,3,90,"B",10,4.177,"strawberry","","","2016_Oct_18_1421"
1,2,4,91,"C",0,2.193,"pear","","","2016_Oct_18_1421"
1,2,4,92,"A",10,1.693,"","banana","","2016_Oct_18_1421"
1,2,4,93,"AY",10,1.568,"orange","banana","","2016_Oct_18_1421"
1,2,4,94,"BY",10,2.896,"orange","strawberry","","2016_Oct_18_1421"
1,2,4,95,"AB",10,0.739,"banana","strawberry","","2016_Oct_18_1421"
1,2,4,96,"A",10,1.927,"banana","","","2016_Oct_18_1421"
1,2,4,97,"X",5,5.774,"apple","","","2016_Oct_18_1421"
1,2,4,98,"CY",0,2.507,"pear","orange","","2016_Oct_18_1421"
1,2,4,99,"BY",10,4.099,"strawberry","orange","","2016_Oct_18_1421"
1,2,4,100,"BX",10,1.367,"strawberry","apple","","2016_Oct_18_1421"
1,2,4,101,"X",5,2.398,"","apple","","2016_Oct_18_1421"
1,2,4,102,"AX",10,1.666,"banana","apple","","2016_Oct_18_1421"
1,2,4,103,"BX",10,2.146,"apple","strawberry","","2016_Oct_18_1421"
1,2,4,104,"B",10,0.552,"","strawberry","","2016_Oct_18_1421"
1,2,4,105,"AC",10,1.927,"banana","pear","","2016_Oct_18_1421"
1,2,4,106,"AB",10,1.974,"strawberry","banana","","2016_Oct_18_1421"
1,2,4,107,"AY",10,1.099,"banana","orange","","2016_Oct_18_1421"
1,2,4,108,"Y",0,1.99,"","orange","","2016_Oct_18_1421"
1,2,4,109,"B",10,2.255,"strawberry","","","2016_Oct_18_1421"
1,2,4,110,"XY",5,8.492,"apple","orange","","2016_Oct_18_1421"
1,2,4,111,"C",0,1.849,"","pear","","2016_Oct_18_1421"
1,2,4,112,"AX",10,1.818,"apple","banana","","2016_Oct_18_1421"
1,2,4,113,"XY",5,4.396,"orange","apple","","2016_Oct_18_1421"
1,2,4,114,"BC",10,1.786,"strawberry","pear","","2016_Oct_18_1421"
1,2,4,115,"BC",10,3.554,"pear","strawberry","","2016_Oct_18_1421"
1,2,4,116,"CX",5,2.383,"pear","apple","","2016_Oct_18_1421"
1,2,4,117,"Y",0,2.333,"orange","","","2016_Oct_18_1421"
1,2,4,118,"CY",0,2.318,"orange","pear","","2016_Oct_18_1421"
1,2,4,119,"AC",10,2.023,"pear","banana","","2016_Oct_18_1421"
1,2,4,120,"CX",5,3.708,"apple","pear","","2016_Oct_18_1421"
1,2,5,121,"BY",10,2.224,"strawberry","orange","","2016_Oct_18_1421"
1,2,5,122,"AX",10,3.74,"apple","banana","","2016_Oct_18_1421"
1,2,5,123,"AC",10,0.849,"banana","pear","","2016_Oct_18_1421"
1,2,5,124,"XY",5,2.226,"orange","apple","","2016_Oct_18_1421"
1,2,5,125,"BX",10,4.021,"strawberry","apple","","2016_Oct_18_1421"
1,2,5,126,"BX",10,1.224,"apple","strawberry","","2016_Oct_18_1421"
1,2,5,127,"AX",10,1.288,"banana","apple","","2016_Oct_18_1421"
1,2,5,128,"Y",0,2.036,"","orange","","2016_Oct_18_1421"
1,2,5,129,"CY",0,1.63,"pear","orange","","2016_Oct_18_1421"
1,2,5,130,"BC",10,2.49,"pear","strawberry","","2016_Oct_18_1421"
1,2,5,131,"X",5,2.615,"","apple","","2016_Oct_18_1421"
1,2,5,132,"AB",10,2.099,"banana","strawberry","","2016_Oct_18_1421"
1,2,5,133,"C",0,4.458,"","pear","","2016_Oct_18_1421"
1,2,5,134,"CY",0,1.021,"orange","pear","","2016_Oct_18_1421"
1,2,5,135,"AY",10,2.208,"banana","orange","","2016_Oct_18_1421"
1,2,5,136,"X",5,2.083,"apple","","","2016_Oct_18_1421"
1,2,5,137,"CX",5,7.13,"pear","apple","","2016_Oct_18_1421"
1,2,5,138,"CX",5,1.771,"apple","pear","","2016_Oct_18_1421"
1,2,5,139,"AY",10,2.13,"orange","banana","","2016_Oct_18_1421"
1,2,5,140,"AB",10,1.771,"strawberry","banana","","2016_Oct_18_1421"
1,2,5,141,"C",0,2.241,"pear","","","2016_Oct_18_1421"
1,2,5,142,"XY",5,2.227,"apple","orange","","2016_Oct_18_1421"
1,2,5,143,"AC",10,2.618,"pear","banana","","2016_Oct_18_1421"
1,2,5,144,"A",10,0.818,"banana","","","2016_Oct_18_1421"
1,2,5,145,"A",10,1.552,"","banana","","2016_Oct_18_1421"
1,2,5,146,"Y",0,1.695,"orange","","","2016_Oct_18_1421"
1,2,5,147,"BY",10,2.101,"orange","strawberry","","2016_Oct_18_1421"
1,2,5,148,"B",10,1.693,"strawberry","","","2016_Oct_18_1421"
1,2,5,149,"B",10,1.007,"","strawberry","","2016_Oct_18_1421"
1,2,5,150,"BC",10,1.865,"strawberry","pear","","2016_Oct_18_1421"
1,2,6,151,"CX",5,2.365,"apple","pear","","2016_Oct_18_1421"
1,2,6,152,"BC",10,1.586,"pear","strawberry","","2016_Oct_18_1421"
1,2,6,153,"CY",0,1.771,"pear","orange","","2016_Oct_18_1421"
1,2,6,154,"X",5,2.162,"apple","","","2016_Oct_18_1421"
1,2,6,155,"A",10,3.63,"banana","","","2016_Oct_18_1421"
1,2,6,156,"BX",10,2.114,"apple","strawberry","","2016_Oct_18_1421"
1,2,6,157,"AB",10,1.255,"banana","strawberry","","2016_Oct_18_1421"
1,2,6,158,"X",5,2.442,"","apple","","2016_Oct_18_1421"
1,2,6,159,"AY",10,2.333,"banana","orange","","2016_Oct_18_1421"
1,2,6,160,"CY",0,2.711,"orange","pear","","2016_Oct_18_1421"
1,2,6,161,"B",10,2.49,"","strawberry","","2016_Oct_18_1421"
1,2,6,162,"Y",0,2.458,"orange","","","2016_Oct_18_1421"
1,2,6,163,"XY",5,5.663,"orange","apple","","2016_Oct_18_1421"
1,2,6,164,"BX",10,1.507,"strawberry","apple","","2016_Oct_18_1421"
1,2,6,165,"BY",10,6.4,"orange","strawberry","","2016_Oct_18_1421"
1,2,6,166,"XY",5,2.708,"apple","orange","","2016_Oct_18_1421"
1,2,6,167,"A",10,2.693,"","banana","","2016_Oct_18_1421"
1,2,6,168,"BC",10,2.07,"strawberry","pear","","2016_Oct_18_1421"
1,2,6,169,"Y",0,4.931,"","orange","","2016_Oct_18_1421"
1,2,6,170,"B",10,1.834,"strawberry","","","2016_Oct_18_1421"
1,2,6,171,"CX",5,2.536,"pear","apple","","2016_Oct_18_1421"
1,2,6,172,"AY",10,1.976,"orange","banana","","2016_Oct_18_1421"
1,2,6,173,"BY",10,1.193,"strawberry","orange","","2016_Oct_18_1421"
1,2,6,174,"AC",10,0.771,"pear","banana","","2016_Oct_18_1421"
1,2,6,175,"AB",10,0.989,"strawberry","banana","","2016_Oct_18_1421"
1,2,6,176,"AC",10,1.864,"banana","pear","","2016_Oct_18_1421"
1,2,6,177,"C",0,3.302,"","pear","","2016_Oct_18_1421"
1,2,6,178,"C",0,5.994,"pear","","","2016_Oct_18_1421"
1,2,6,179,"AX",10,12.628,"banana","apple","","2016_Oct_18_1421"
1,2,6,180,"AX",10,1.865,"apple","banana","","2016_Oct_18_1421"
2,2,1,1,"BX",10,6.883,"apple","pear","","2016_Oct_18_1456"
2,2,1,2,"AC",10,6.005,"orange","strawberry","","2016_Oct_18_1456"
2,2,1,3,"CY",0,1.833,"banana","strawberry","","2016_Oct_18_1456"
2,2,1,4,"AC",10,4.615,"strawberry","orange","","2016_Oct_18_1456"
2,2,1,5,"Y",0,2.286,"banana","","","2016_Oct_18_1456"
2,2,1,6,"A",10,1.601,"","orange","","2016_Oct_18_1456"
2,2,1,7,"AY",10,3.007,"orange","banana","","2016_Oct_18_1456"
2,2,1,8,"B",10,1.63,"apple","","","2016_Oct_18_1456"
2,2,1,9,"AB",10,1.632,"apple","orange","","2016_Oct_18_1456"
2,2,1,10,"C",0,1.146,"","strawberry","","2016_Oct_18_1456"
2,2,1,11,"X",0,1.645,"","pear","","2016_Oct_18_1456"
2,2,1,12,"B",10,1.568,"","apple","","2016_Oct_18_1456"
2,2,1,13,"Y",0,2.007,"","banana","","2016_Oct_18_1456"
2,2,1,14,"BX",10,6.255,"pear","apple","","2016_Oct_18_1456"
2,2,1,15,"X",0,1.491,"pear","","","2016_Oct_18_1456"
2,2,1,16,"AB",10,1.286,"orange","apple","","2016_Oct_18_1456"
2,2,1,17,"AX",10,7.349,"orange","pear","","2016_Oct_18_1456"
2,2,1,18,"C",0,1.335,"strawberry","","","2016_Oct_18_1456"
2,2,1,19,"AY",10,1.818,"banana","orange","","2016_Oct_18_1456"
2,2,1,20,"XY",0,2.271,"banana","pear","","2016_Oct_18_1456"
2,2,1,21,"A",10,3.677,"orange","","","2016_Oct_18_1456"
2,2,1,22,"XY",0,1.943,"pear","banana","","2016_Oct_18_1456"
2,2,1,23,"BY",10,1.648,"banana","apple","","2016_Oct_18_1456"
2,2,1,24,"CX",0,1.411,"strawberry","pear","","2016_Oct_18_1456"
2,2,1,25,"CX",0,1.07,"pear","strawberry","","2016_Oct_18_1456"
2,2,1,26,"BC",10,1.443,"apple","strawberry","","2016_Oct_18_1456"
2,2,1,27,"BC",10,0.632,"strawberry","apple","","2016_Oct_18_1456"
2,2,1,28,"CY",0,1.241,"strawberry","banana","","2016_Oct_18_1456"
2,2,1,29,"AX",10,1.268,"pear","orange","","2016_Oct_18_1456"
2,2,1,30,"BY",10,1.052,"apple","banana","","2016_Oct_18_1456"
2,2,2,31,"BX",10,1.083,"pear","apple","","2016_Oct_18_1456"
2,2,2,32,"Y",0,1.443,"","banana","","2016_Oct_18_1456"
2,2,2,33,"Y",0,0.677,"banana","","","2016_Oct_18_1456"
2,2,2,34,"X",0,0.614,"","pear","","2016_Oct_18_1456"
2,2,2,35,"AC",10,1.614,"orange","strawberry","","2016_Oct_18_1456"
2,2,2,36,"B",10,2.083,"","apple","","2016_Oct_18_1456"
2,2,2,37,"BY",10,0.927,"apple","banana","","2016_Oct_18_1456"
2,2,2,38,"AX",10,0.786,"pear","orange","","2016_Oct_18_1456"
2,2,2,39,"BC",10,0.896,"strawberry","apple","","2016_Oct_18_1456"
2,2,2,40,"CX",0,5.551,"pear","strawberry","","2016_Oct_18_1456"
2,2,2,41,"BC",10,1.257,"apple","strawberry","","2016_Oct_18_1456"
2,2,2,42,"CY",0,1.318,"banana","strawberry","","2016_Oct_18_1456"
2,2,2,43,"CY",0,1.333,"strawberry","banana","","2016_Oct_18_1456"
2,2,2,44,"A",10,1.38,"","orange","","2016_Oct_18_1456"
2,2,2,45,"AB",10,1.177,"orange","apple","","2016_Oct_18_1456"
2,2,2,46,"A",10,1.21,"orange","","","2016_Oct_18_1456"
2,2,2,47,"B",10,0.835,"apple","","","2016_Oct_18_1456"
2,2,2,48,"C",0,1.097,"","strawberry","","2016_Oct_18_1456"
2,2,2,49,"C",0,0.552,"strawberry","","","2016_Oct_18_1456"
2,2,2,50,"AB",10,1.661,"apple","orange","","2016_Oct_18_1456"
2,2,2,51,"AX",10,0.867,"orange","pear","","2016_Oct_18_1456"
2,2,2,52,"BY",10,1.49,"banana","apple","","2016_Oct_18_1456"
2,2,2,53,"CX",0,1.661,"strawberry","pear","","2016_Oct_18_1456"
2,2,2,54,"AY",10,1.568,"banana","orange","","2016_Oct_18_1456"
2,2,2,55,"BX",10,0.632,"apple","pear","","2016_Oct_18_1456"
2,2,2,56,"AY",10,0.632,"orange","banana","","2016_Oct_18_1456"
2,2,2,57,"XY",0,1.289,"pear","banana","","2016_Oct_18_1456"
2,2,2,58,"X",0,0.757,"pear","","","2016_Oct_18_1456"
2,2,2,59,"AC",10,1.273,"strawberry","orange","","2016_Oct_18_1456"
2,2,2,60,"XY",0,1.382,"banana","pear","","2016_Oct_18_1456"
2,2,3,61,"C",0,0.945,"strawberry","","","2016_Oct_18_1456"
2,2,3,62,"A",10,0.958,"","orange","","2016_Oct_18_1456"
2,2,3,63,"B",10,0.521,"apple","","","2016_Oct_18_1456"
2,2,3,64,"AY",10,1.57,"banana","orange","","2016_Oct_18_1456"
2,2,3,65,"CY",0,1.161,"banana","strawberry","","2016_Oct_18_1456"
2,2,3,66,"AC",10,2.912,"orange","strawberry","","2016_Oct_18_1456"
2,2,3,67,"C",0,2.396,"","strawberry","","2016_Oct_18_1456"
2,2,3,68,"BC",10,1.742,"apple","strawberry","","2016_Oct_18_1456"
2,2,3,69,"AC",10,0.958,"strawberry","orange","","2016_Oct_18_1456"
2,2,3,70,"BC",10,0.724,"strawberry","apple","","2016_Oct_18_1456"
2,2,3,71,"CY",0,1.302,"strawberry","banana","","2016_Oct_18_1456"
2,2,3,72,"AX",10,1.508,"pear","orange","","2016_Oct_18_1456"
2,2,3,73,"AB",10,1.226,"apple","orange","","2016_Oct_18_1456"
2,2,3,74,"BX",10,0.974,"pear","apple","","2016_Oct_18_1456"
2,2,3,75,"BX",10,1.083,"apple","pear","","2016_Oct_18_1456"
2,2,3,76,"CX",0,1.445,"pear","strawberry","","2016_Oct_18_1456"
2,2,3,77,"XY",0,0.898,"banana","pear","","2016_Oct_18_1456"
2,2,3,78,"BY",10,2.085,"apple","banana","","2016_Oct_18_1456"
2,2,3,79,"AX",10,1.68,"orange","pear","","2016_Oct_18_1456"
2,2,3,80,"B",10,0.989,"","apple","","2016_Oct_18_1456"
2,2,3,81,"BY",10,2.208,"banana","apple","","2016_Oct_18_1456"
2,2,3,82,"AY",10,2.896,"orange","banana","","2016_Oct_18_1456"
2,2,3,83,"XY",0,1.536,"pear","banana","","2016_Oct_18_1456"
2,2,3,84,"Y",0,0.989,"banana","","","2016_Oct_18_1456"
2,2,3,85,"X",0,0.695,"pear","","","2016_Oct_18_1456"
2,2,3,86,"A",10,1.583,"orange","","","2016_Oct_18_1456"
2,2,3,87,"X",0,1.398,"","pear","","2016_Oct_18_1456"
2,2,3,88,"Y",0,0.927,"","banana","","2016_Oct_18_1456"
2,2,3,89,"CX",0,1.104,"strawberry","pear","","2016_Oct_18_1456"
2,2,3,90,"AB",10,1.352,"orange","apple","","2016_Oct_18_1456"
2,2,4,91,"Y",0,1.304,"","banana","","2016_Oct_18_1456"
2,2,4,92,"A",10,1.352,"orange","","","2016_Oct_18_1456"
2,2,4,93,"AX",10,2.411,"orange","pear","","2016_Oct_18_1456"
2,2,4,94,"BX",10,1.302,"pear","apple","","2016_Oct_18_1456"
2,2,4,95,"CY",0,1.568,"strawberry","banana","","2016_Oct_18_1456"
2,2,4,96,"CY",0,0.664,"banana","strawberry","","2016_Oct_18_1456"
2,2,4,97,"BY",10,2.117,"banana","apple","","2016_Oct_18_1456"
2,2,4,98,"XY",0,1.599,"banana","pear","","2016_Oct_18_1456"
2,2,4,99,"X",0,0.569,"","pear","","2016_Oct_18_1456"
2,2,4,100,"Y",0,0.507,"banana","","","2016_Oct_18_1456"
2,2,4,101,"BX",10,1.833,"apple","pear","","2016_Oct_18_1456"
2,2,4,102,"BY",10,0.739,"apple","banana","","2016_Oct_18_1456"
2,2,4,103,"B",10,0.73,"","apple","","2016_Oct_18_1456"
2,2,4,104,"AB",10,0.708,"orange","apple","","2016_Oct_18_1456"
2,2,4,105,"CX",0,1.852,"strawberry","pear","","2016_Oct_18_1456"
2,2,4,106,"AY",10,1.615,"orange","banana","","2016_Oct_18_1456"
2,2,4,107,"CX",0,1.536,"pear","strawberry","","2016_Oct_18_1456"
2,2,4,108,"AC",10,1.567,"orange","strawberry","","2016_Oct_18_1456"
2,2,4,109,"C",0,1.224,"","strawberry","","2016_Oct_18_1456"
2,2,4,110,"C",0,0.489,"strawberry","","","2016_Oct_18_1456"
2,2,4,111,"AC",10,1.1,"strawberry","orange","","2016_Oct_18_1456"
2,2,4,112,"BC",10,0.82,"strawberry","apple","","2016_Oct_18_1456"
2,2,4,113,"AB",10,0.896,"apple","orange","","2016_Oct_18_1456"
2,2,4,114,"X",0,1.383,"pear","","","2016_Oct_18_1456"
2,2,4,115,"A",10,1.927,"","orange","","2016_Oct_18_1456"
2,2,4,116,"XY",0,1.742,"pear","banana","","2016_Oct_18_1456"
2,2,4,117,"AX",10,1.414,"pear","orange","","2016_Oct_18_1456"
2,2,4,118,"BC",10,0.927,"apple","strawberry","","2016_Oct_18_1456"
2,2,4,119,"AY",10,1.146,"banana","orange","","2016_Oct_18_1456"
2,2,4,120,"B",10,0.612,"apple","","","2016_Oct_18_1456"
2,2,5,121,"BX",10,0.489,"pear","apple","","2016_Oct_18_1456"
2,2,5,122,"BC",10,0.739,"apple","strawberry","","2016_Oct_18_1456"
2,2,5,123,"AX",10,0.833,"orange","pear","","2016_Oct_18_1456"
2,2,5,124,"AC",10,1.099,"strawberry","orange","","2016_Oct_18_1456"
2,2,5,125,"AB",10,0.614,"apple","orange","","2016_Oct_18_1456"
2,2,5,126,"CY",0,1.161,"banana","strawberry","","2016_Oct_18_1456"
2,2,5,127,"CY",0,0.786,"strawberry","banana","","2016_Oct_18_1456"
2,2,5,128,"A",10,1.161,"","orange","","2016_Oct_18_1456"
2,2,5,129,"C",0,1.083,"strawberry","","","2016_Oct_18_1456"
2,2,5,130,"Y",0,0.552,"banana","","","2016_Oct_18_1456"
2,2,5,131,"BY",10,1.505,"banana","apple","","2016_Oct_18_1456"
2,2,5,132,"XY",0,1.615,"pear","banana","","2016_Oct_18_1456"
2,2,5,133,"CX",0,0.737,"strawberry","pear","","2016_Oct_18_1456"
2,2,5,134,"BX",10,1.208,"apple","pear","","2016_Oct_18_1456"
2,2,5,135,"AC",10,1.005,"orange","strawberry","","2016_Oct_18_1456"
2,2,5,136,"AY",10,0.663,"banana","orange","","2016_Oct_18_1456"
2,2,5,137,"B",10,0.786,"","apple","","2016_Oct_18_1456"
2,2,5,138,"AB",10,1.411,"orange","apple","","2016_Oct_18_1456"
2,2,5,139,"A",10,0.677,"orange","","","2016_Oct_18_1456"
2,2,5,140,"BY",10,0.804,"apple","banana","","2016_Oct_18_1456"
2,2,5,141,"C",0,1.193,"","strawberry","","2016_Oct_18_1456"
2,2,5,142,"AX",10,1.544,"pear","orange","","2016_Oct_18_1456"
2,2,5,143,"X",0,1.349,"pear","","","2016_Oct_18_1456"
2,2,5,144,"AY",10,1.567,"orange","banana","","2016_Oct_18_1456"
2,2,5,145,"CX",0,1.927,"pear","strawberry","","2016_Oct_18_1456"
2,2,5,146,"XY",0,1.099,"banana","pear","","2016_Oct_18_1456"
2,2,5,147,"BC",10,1.521,"strawberry","apple","","2016_Oct_18_1456"
2,2,5,148,"B",10,0.71,"apple","","","2016_Oct_18_1456"
2,2,5,149,"X",0,1.521,"","pear","","2016_Oct_18_1456"
2,2,5,150,"Y",0,0.489,"","banana","","2016_Oct_18_1456"
2,2,6,151,"AX",10,1.507,"orange","pear","","2016_Oct_18_1456"
2,2,6,152,"BX",10,0.523,"pear","apple","","2016_Oct_18_1456"
2,2,6,153,"BY",10,0.599,"banana","apple","","2016_Oct_18_1456"
2,2,6,154,"AC",10,0.882,"strawberry","orange","","2016_Oct_18_1456"
2,2,6,155,"AY",10,0.63,"banana","orange","","2016_Oct_18_1456"
2,2,6,156,"AB",10,0.489,"apple","orange","","2016_Oct_18_1456"
2,2,6,157,"X",0,1.509,"pear","","","2016_Oct_18_1456"
2,2,6,158,"B",10,1.645,"apple","","","2016_Oct_18_1456"
2,2,6,159,"CX",0,1.146,"strawberry","pear","","2016_Oct_18_1456"
2,2,6,160,"Y",0,0.882,"","banana","","2016_Oct_18_1456"
2,2,6,161,"BY",10,1.505,"apple","banana","","2016_Oct_18_1456"
2,2,6,162,"XY",0,1.318,"pear","banana","","2016_Oct_18_1456"
2,2,6,163,"CY",0,1.599,"banana","strawberry","","2016_Oct_18_1456"
2,2,6,164,"BC",10,1.38,"apple","strawberry","","2016_Oct_18_1456"
2,2,6,165,"AY",10,1.242,"orange","banana","","2016_Oct_18_1456"
2,2,6,166,"A",10,0.489,"orange","","","2016_Oct_18_1456"
2,2,6,167,"BC",10,0.677,"strawberry","apple","","2016_Oct_18_1456"
2,2,6,168,"Y",0,1.364,"banana","","","2016_Oct_18_1456"
2,2,6,169,"BX",10,1.568,"apple","pear","","2016_Oct_18_1456"
2,2,6,170,"AX",10,0.677,"pear","orange","","2016_Oct_18_1456"
2,2,6,171,"CX",0,1.445,"pear","strawberry","","2016_Oct_18_1456"
2,2,6,172,"X",0,0.552,"","pear","","2016_Oct_18_1456"
2,2,6,173,"C",0,0.507,"","strawberry","","2016_Oct_18_1456"
2,2,6,174,"B",10,1.46,"","apple","","2016_Oct_18_1456"
2,2,6,175,"CY",0,1.226,"strawberry","banana","","2016_Oct_18_1456"
2,2,6,176,"C",0,0.536,"strawberry","","","2016_Oct_18_1456"
2,2,6,177,"A",10,2.536,"","orange","","2016_Oct_18_1456"
2,2,6,178,"AC",10,0.536,"orange","strawberry","","2016_Oct_18_1456"
2,2,6,179,"XY",0,1.364,"banana","pear","","2016_Oct_18_1456"
2,2,6,180,"AB",10,1.286,"orange","apple","","2016_Oct_18_1456"
3,2,1,1,"AB",10,11.349,"orange","strawberry","","2016_Oct_18_1555"
3,2,1,2,"BY",7,6.57,"orange","pear","","2016_Oct_18_1555"
3,2,1,3,"CX",6,4.523,"banana","apple","","2016_Oct_18_1555"
3,2,1,4,"B",9,4.193,"orange","","","2016_Oct_18_1555"
3,2,1,5,"A",10,1.553,"","strawberry","","2016_Oct_18_1555"
3,2,1,6,"BX",10,2.88,"orange","apple","","2016_Oct_18_1555"
3,2,1,7,"Y",3,4.695,"","pear","","2016_Oct_18_1555"
3,2,1,8,"C",0,3.24,"banana","","","2016_Oct_18_1555"
3,2,1,9,"CX",5,2.257,"apple","banana","","2016_Oct_18_1555"
3,2,1,10,"CY",0,3.476,"pear","banana","","2016_Oct_18_1555"
3,2,1,11,"XY",6,3.146,"pear","apple","","2016_Oct_18_1555"
3,2,1,12,"AB",9,2.318,"strawberry","orange","","2016_Oct_18_1555"
3,2,1,13,"AX",9,1.395,"apple","strawberry","","2016_Oct_18_1555"
3,2,1,14,"X",9,1.239,"apple","","","2016_Oct_18_1555"
3,2,1,15,"B",9,1.474,"","orange","","2016_Oct_18_1555"
3,2,1,16,"A",9,1.115,"strawberry","","","2016_Oct_18_1555"
3,2,1,17,"BX",9,1.864,"apple","orange","","2016_Oct_18_1555"
3,2,1,18,"AC",6,3.102,"strawberry","banana","","2016_Oct_18_1555"
3,2,1,19,"AY",6,2.347,"strawberry","pear","","2016_Oct_18_1555"
3,2,1,20,"AX",9,3.062,"strawberry","apple","","2016_Oct_18_1555"
3,2,1,21,"AY",6,9.011,"pear","strawberry","","2016_Oct_18_1555"
3,2,1,22,"CY",0,2.77,"banana","pear","","2016_Oct_18_1555"
3,2,1,23,"BC",7,3.271,"banana","orange","","2016_Oct_18_1555"
3,2,1,24,"C",0,1.896,"","banana","","2016_Oct_18_1555"
3,2,1,25,"X",9,2.699,"","apple","","2016_Oct_18_1555"
3,2,1,26,"BC",6,2.224,"orange","banana","","2016_Oct_18_1555"
3,2,1,27,"Y",2,2.099,"pear","","","2016_Oct_18_1555"
3,2,1,28,"AC",6,3.505,"banana","strawberry","","2016_Oct_18_1555"
3,2,1,29,"BY",6,3.945,"pear","orange","","2016_Oct_18_1555"
3,2,1,30,"XY",7,3.086,"apple","pear","","2016_Oct_18_1555"
3,2,2,31,"X",8,1.528,"apple","","","2016_Oct_18_1555"
3,2,2,32,"CY",0,2.992,"pear","banana","","2016_Oct_18_1555"
3,2,2,33,"XY",7,5.036,"pear","apple","","2016_Oct_18_1555"
3,2,2,34,"A",9,2.146,"strawberry","","","2016_Oct_18_1555"
3,2,2,35,"BX",9,0.864,"orange","apple","","2016_Oct_18_1555"
3,2,2,36,"AX",9,0.848,"apple","strawberry","","2016_Oct_18_1555"
3,2,2,37,"AY",2,2.802,"strawberry","pear","","2016_Oct_18_1555"
3,2,2,38,"AX",9,2.146,"strawberry","apple","","2016_Oct_18_1555"
3,2,2,39,"CX",6,5.365,"banana","apple","","2016_Oct_18_1555"
3,2,2,40,"B",7,1.927,"","orange","","2016_Oct_18_1555"
3,2,2,41,"AB",7,0.864,"orange","strawberry","","2016_Oct_18_1555"
3,2,2,42,"C",0,2.257,"","banana","","2016_Oct_18_1555"
3,2,2,43,"AY",8,3.588,"pear","strawberry","","2016_Oct_18_1555"
3,2,2,44,"BX",8,1.552,"apple","orange","","2016_Oct_18_1555"
3,2,2,45,"A",9,1.802,"","strawberry","","2016_Oct_18_1555"
3,2,2,46,"BY",2,1.988,"orange","pear","","2016_Oct_18_1555"
3,2,2,47,"CX",6,2.82,"apple","banana","","2016_Oct_18_1555"
3,2,2,48,"B",9,1.661,"orange","","","2016_Oct_18_1555"
3,2,2,49,"AC",6,1.771,"banana","strawberry","","2016_Oct_18_1555"
3,2,2,50,"AB",8,2.82,"strawberry","orange","","2016_Oct_18_1555"
3,2,2,51,"BC",6,2.521,"banana","orange","","2016_Oct_18_1555"
3,2,2,52,"BY",6,2.865,"pear","orange","","2016_Oct_18_1555"
3,2,2,53,"C",0,1.943,"banana","","","2016_Oct_18_1555"
3,2,2,54,"X",9,1.569,"","apple","","2016_Oct_18_1555"
3,2,2,55,"XY",7,2.036,"apple","pear","","2016_Oct_18_1555"
3,2,2,56,"Y",0,2.66,"","pear","","2016_Oct_18_1555"
3,2,2,57,"CY",0,2.94,"banana","pear","","2016_Oct_18_1555"
3,2,2,58,"AC",5,3.554,"strawberry","banana","","2016_Oct_18_1555"
3,2,2,59,"Y",0,2.38,"pear","","","2016_Oct_18_1555"
3,2,2,60,"BC",6,3.864,"orange","banana","","2016_Oct_18_1555"
3,2,3,61,"AC",6,0.927,"strawberry","banana","","2016_Oct_18_1555"
3,2,3,62,"CY",0,1.739,"banana","pear","","2016_Oct_18_1555"
3,2,3,63,"BX",9,1.96,"apple","orange","","2016_Oct_18_1555"
3,2,3,64,"AB",9,1.32,"orange","strawberry","","2016_Oct_18_1555"
3,2,3,65,"X",9,0.943,"","apple","","2016_Oct_18_1555"
3,2,3,66,"CX",6,1.396,"apple","banana","","2016_Oct_18_1555"
3,2,3,67,"AB",9,2.075,"strawberry","orange","","2016_Oct_18_1555"
3,2,3,68,"A",9,1.896,"","strawberry","","2016_Oct_18_1555"
3,2,3,69,"Y",0,2.521,"pear","","","2016_Oct_18_1555"
3,2,3,70,"B",9,2.036,"","orange","","2016_Oct_18_1555"
3,2,3,71,"BC",6,1.726,"banana","orange","","2016_Oct_18_1555"
3,2,3,72,"X",8,1.731,"apple","","","2016_Oct_18_1555"
3,2,3,73,"B",8,0.865,"orange","","","2016_Oct_18_1555"
3,2,3,74,"A",9,1.773,"strawberry","","","2016_Oct_18_1555"
3,2,3,75,"AY",6,2.693,"strawberry","pear","","2016_Oct_18_1555"
3,2,3,76,"BC",6,1.676,"orange","banana","","2016_Oct_18_1555"
3,2,3,77,"Y",1,1.587,"","pear","","2016_Oct_18_1555"
3,2,3,78,"AY",5,3.976,"pear","strawberry","","2016_Oct_18_1555"
3,2,3,79,"AX",10,2.474,"apple","strawberry","","2016_Oct_18_1555"
3,2,3,80,"AX",10,0.757,"strawberry","apple","","2016_Oct_18_1555"
3,2,3,81,"CY",0,2.058,"pear","banana","","2016_Oct_18_1555"
3,2,3,82,"AC",5,4.708,"banana","strawberry","","2016_Oct_18_1555"
3,2,3,83,"BY",6,2.521,"pear","orange","","2016_Oct_18_1555"
3,2,3,84,"CX",6,10.867,"banana","apple","","2016_Oct_18_1555"
3,2,3,85,"BX",10,4.336,"orange","apple","","2016_Oct_18_1555"
3,2,3,86,"XY",7,3.492,"apple","pear","","2016_Oct_18_1555"
3,2,3,87,"BY",10,2.963,"orange","pear","","2016_Oct_18_1555"
3,2,3,88,"XY",8,2.071,"pear","apple","","2016_Oct_18_1555"
3,2,3,89,"C",0,1.802,"banana","","","2016_Oct_18_1555"
3,2,3,90,"C",0,1.099,"","banana","","2016_Oct_18_1555"
3,2,4,91,"BY",9,2.677,"pear","orange","","2016_Oct_18_1555"
3,2,4,92,"AY",8,2.757,"pear","strawberry","","2016_Oct_18_1555"
3,2,4,93,"AB",9,1.708,"strawberry","orange","","2016_Oct_18_1555"
3,2,4,94,"AY",7,2.068,"strawberry","pear","","2016_Oct_18_1555"
3,2,4,95,"CX",5,2.274,"banana","apple","","2016_Oct_18_1555"
3,2,4,96,"AX",10,1.771,"apple","strawberry","","2016_Oct_18_1555"
3,2,4,97,"Y",0,1.725,"pear","","","2016_Oct_18_1555"
3,2,4,98,"A",10,2.115,"","strawberry","","2016_Oct_18_1555"
3,2,4,99,"A",10,1.177,"strawberry","","","2016_Oct_18_1555"
3,2,4,100,"AC",5,2.021,"banana","strawberry","","2016_Oct_18_1555"
3,2,4,101,"BC",6,1.285,"orange","banana","","2016_Oct_18_1555"
3,2,4,102,"CX",6,2.054,"apple","banana","","2016_Oct_18_1555"
3,2,4,103,"AX",10,1.833,"strawberry","apple","","2016_Oct_18_1555"
3,2,4,104,"B",10,1.382,"orange","","","2016_Oct_18_1555"
3,2,4,105,"CY",0,2.114,"pear","banana","","2016_Oct_18_1555"
3,2,4,106,"BY",8,4.962,"orange","pear","","2016_Oct_18_1555"
3,2,4,107,"C",0,2.277,"","banana","","2016_Oct_18_1555"
3,2,4,108,"CY",0,3.427,"banana","pear","","2016_Oct_18_1555"
3,2,4,109,"X",9,1.882,"apple","","","2016_Oct_18_1555"
3,2,4,110,"BC",9,1.865,"banana","orange","","2016_Oct_18_1555"
3,2,4,111,"BX",9,1.432,"apple","orange","","2016_Oct_18_1555"
3,2,4,112,"B",9,0.802,"","orange","","2016_Oct_18_1555"
3,2,4,113,"AC",9,1.927,"strawberry","banana","","2016_Oct_18_1555"
3,2,4,114,"XY",9,0.739,"apple","pear","","2016_Oct_18_1555"
3,2,4,115,"C",0,5.443,"banana","","","2016_Oct_18_1555"
3,2,4,116,"Y",0,3.177,"","pear","","2016_Oct_18_1555"
3,2,4,117,"X",10,1.492,"","apple","","2016_Oct_18_1555"
3,2,4,118,"AB",10,0.866,"orange","strawberry","","2016_Oct_18_1555"
3,2,4,119,"XY",7,2.724,"pear","apple","","2016_Oct_18_1555"
3,2,4,120,"BX",7,1.445,"orange","apple","","2016_Oct_18_1555"
3,2,5,121,"BC",7,3.224,"banana","orange","","2016_Oct_18_1555"
3,2,5,122,"AY",7,1.161,"strawberry","pear","","2016_Oct_18_1555"
3,2,5,123,"X",9,1.508,"apple","","","2016_Oct_18_1555"
3,2,5,124,"A",7,1.552,"","strawberry","","2016_Oct_18_1555"
3,2,5,125,"BY",9,2.009,"orange","pear","","2016_Oct_18_1555"
3,2,5,126,"CX",6,3.023,"apple","banana","","2016_Oct_18_1555"
3,2,5,127,"BY",9,2.023,"pear","orange","","2016_Oct_18_1555"
3,2,5,128,"B",9,0.989,"","orange","","2016_Oct_18_1555"
3,2,5,129,"X",9,2.552,"","apple","","2016_Oct_18_1555"
3,2,5,130,"CX",6,2.288,"banana","apple","","2016_Oct_18_1555"
3,2,5,131,"BX",6,1.365,"orange","apple","","2016_Oct_18_1555"
3,2,5,132,"C",0,1.974,"","banana","","2016_Oct_18_1555"
3,2,5,133,"A",10,1.521,"strawberry","","","2016_Oct_18_1555"
3,2,5,134,"CY",0,2.693,"pear","banana","","2016_Oct_18_1555"
3,2,5,135,"Y",0,0.694,"","pear","","2016_Oct_18_1555"
3,2,5,136,"AB",10,2.068,"orange","strawberry","","2016_Oct_18_1555"
3,2,5,137,"BX",10,1.302,"apple","orange","","2016_Oct_18_1555"
3,2,5,138,"XY",6,4.567,"apple","pear","","2016_Oct_18_1555"
3,2,5,139,"BC",6,1.427,"orange","banana","","2016_Oct_18_1555"
3,2,5,140,"AB",10,1.911,"strawberry","orange","","2016_Oct_18_1555"
3,2,5,141,"AC",5,2.679,"banana","strawberry","","2016_Oct_18_1555"
3,2,5,142,"AX",10,4.242,"apple","strawberry","","2016_Oct_18_1555"
3,2,5,143,"AY",7,2.693,"pear","strawberry","","2016_Oct_18_1555"
3,2,5,144,"AC",5,1.958,"strawberry","banana","","2016_Oct_18_1555"
3,2,5,145,"XY",7,3.448,"pear","apple","","2016_Oct_18_1555"
3,2,5,146,"CY",0,2.505,"banana","pear","","2016_Oct_18_1555"
3,2,5,147,"AX",10,1.755,"strawberry","apple","","2016_Oct_18_1555"
3,2,5,148,"B",10,3.755,"orange","","","2016_Oct_18_1555"
3,2,5,149,"C",0,1.443,"banana","","","2016_Oct_18_1555"
3,2,5,150,"Y",0,0.802,"pear","","","2016_Oct_18_1555"
3,2,6,151,"Y",0,1.052,"","pear","","2016_Oct_18_1555"
3,2,6,152,"AY",8,2.474,"pear","strawberry","","2016_Oct_18_1555"
3,2,6,153,"BX",10,1.741,"apple","orange","","2016_Oct_18_1555"
3,2,6,154,"C",0,1.521,"","banana","","2016_Oct_18_1555"
3,2,6,155,"Y",0,2.505,"pear","","","2016_Oct_18_1555"
3,2,6,156,"AX",10,1.882,"strawberry","apple","","2016_Oct_18_1555"
3,2,6,157,"CX",6,4.32,"banana","apple","","2016_Oct_18_1555"
3,2,6,158,"BX",10,2.271,"orange","apple","","2016_Oct_18_1555"
3,2,6,159,"BC",6,1.614,"orange","banana","","2016_Oct_18_1555"
3,2,6,160,"XY",6,1.864,"apple","pear","","2016_Oct_18_1555"
3,2,6,161,"X",8,2.382,"","apple","","2016_Oct_18_1555"
3,2,6,162,"AC",10,5.802,"strawberry","banana","","2016_Oct_18_1555"
3,2,6,163,"X",9,0.911,"apple","","","2016_Oct_18_1555"
3,2,6,164,"AX",9,0.945,"apple","strawberry","","2016_Oct_18_1555"
3,2,6,165,"AB",9,0.989,"orange","strawberry","","2016_Oct_18_1555"
3,2,6,166,"CX",9,2.976,"apple","banana","","2016_Oct_18_1555"
3,2,6,167,"AB",9,0.661,"strawberry","orange","","2016_Oct_18_1555"
3,2,6,168,"B",9,1.114,"","orange","","2016_Oct_18_1555"
3,2,6,169,"AC",6,1.458,"banana","strawberry","","2016_Oct_18_1555"
3,2,6,170,"BY",0,2.583,"pear","orange","","2016_Oct_18_1555"
3,2,6,171,"AY",8,1.599,"strawberry","pear","","2016_Oct_18_1555"
3,2,6,172,"BY",8,0.989,"orange","pear","","2016_Oct_18_1555"
3,2,6,173,"B",10,1.411,"orange","","","2016_Oct_18_1555"
3,2,6,174,"BC",10,0.882,"banana","orange","","2016_Oct_18_1555"
3,2,6,175,"C",0,1.943,"banana","","","2016_Oct_18_1555"
3,2,6,176,"CY",0,1.849,"pear","banana","","2016_Oct_18_1555"
3,2,6,177,"XY",0,0.912,"pear","apple","","2016_Oct_18_1555"
3,2,6,178,"A",10,2.13,"","strawberry","","2016_Oct_18_1555"
3,2,6,179,"CY",0,2.99,"banana","pear","","2016_Oct_18_1555"
3,2,6,180,"A",10,1.928,"strawberry","","","2016_Oct_18_1555"
4,2,1,1,"BY",10,9.542,"strawberry","pear","","2016_Oct_18_1602"
4,2,1,2,"AC",10,9.24,"apple","banana","","2016_Oct_18_1602"
4,2,1,3,"A",10,3.271,"","apple","","2016_Oct_18_1602"
4,2,1,4,"AX",10,1.802,"apple","orange","","2016_Oct_18_1602"
4,2,1,5,"B",10,1.93,"","pear","","2016_Oct_18_1602"
4,2,1,6,"BX",10,1.505,"orange","pear","","2016_Oct_18_1602"
4,2,1,7,"AY",10,1.241,"apple","strawberry","","2016_Oct_18_1602"
4,2,1,8,"C",0,2.167,"","banana","","2016_Oct_18_1602"
4,2,1,9,"X",5,5.771,"orange","","","2016_Oct_18_1602"
4,2,1,10,"CY",0,2.255,"strawberry","banana","","2016_Oct_18_1602"
4,2,1,11,"B",10,2.427,"pear","","","2016_Oct_18_1602"
4,2,1,12,"BY",10,1.395,"pear","strawberry","","2016_Oct_18_1602"
4,2,1,13,"X",5,2.632,"","orange","","2016_Oct_18_1602"
4,2,1,14,"C",0,3.888,"banana","","","2016_Oct_18_1602"
4,2,1,15,"XY",5,5.818,"strawberry","orange","","2016_Oct_18_1602"
4,2,1,16,"BC",10,2.304,"pear","banana","","2016_Oct_18_1602"
4,2,1,17,"AB",10,1.82,"apple","pear","","2016_Oct_18_1602"
4,2,1,18,"Y",0,2.616,"strawberry","","","2016_Oct_18_1602"
4,2,1,19,"CX",5,3.164,"banana","orange","","2016_Oct_18_1602"
4,2,1,20,"A",10,2.131,"apple","","","2016_Oct_18_1602"
4,2,1,21,"BX",10,1.411,"pear","orange","","2016_Oct_18_1602"
4,2,1,22,"AX",10,1.71,"orange","apple","","2016_Oct_18_1602"
4,2,1,23,"AY",10,2.536,"strawberry","apple","","2016_Oct_18_1602"
4,2,1,24,"CY",0,2.163,"banana","strawberry","","2016_Oct_18_1602"
4,2,1,25,"AC",10,2.849,"banana","apple","","2016_Oct_18_1602"
4,2,1,26,"AB",10,1.554,"pear","apple","","2016_Oct_18_1602"
4,2,1,27,"CX",5,2.336,"orange","banana","","2016_Oct_18_1602"
4,2,1,28,"Y",0,2.286,"","strawberry","","2016_Oct_18_1602"
4,2,1,29,"BC",10,1.771,"banana","pear","","2016_Oct_18_1602"
4,2,1,30,"XY",5,2.255,"orange","strawberry","","2016_Oct_18_1602"
4,2,2,31,"Y",0,2.086,"strawberry","","","2016_Oct_18_1602"
4,2,2,32,"BC",10,2.851,"pear","banana","","2016_Oct_18_1602"
4,2,2,33,"BX",10,1.208,"orange","pear","","2016_Oct_18_1602"
4,2,2,34,"AB",10,1.021,"apple","pear","","2016_Oct_18_1602"
4,2,2,35,"C",0,1.411,"banana","","","2016_Oct_18_1602"
4,2,2,36,"AY",10,2.114,"strawberry","apple","","2016_Oct_18_1602"
4,2,2,37,"A",10,1.192,"apple","","","2016_Oct_18_1602"
4,2,2,38,"BX",10,2.411,"pear","orange","","2016_Oct_18_1602"
4,2,2,39,"C",0,3.148,"","banana","","2016_Oct_18_1602"
4,2,2,40,"CX",5,1.755,"orange","banana","","2016_Oct_18_1602"
4,2,2,41,"Y",0,1.679,"","strawberry","","2016_Oct_18_1602"
4,2,2,42,"BY",10,1.708,"pear","strawberry","","2016_Oct_18_1602"
4,2,2,43,"X",5,1.413,"orange","","","2016_Oct_18_1602"
4,2,2,44,"CY",0,2.023,"banana","strawberry","","2016_Oct_18_1602"
4,2,2,45,"CY",0,1.099,"strawberry","banana","","2016_Oct_18_1602"
4,2,2,46,"AY",10,1.601,"apple","strawberry","","2016_Oct_18_1602"
4,2,2,47,"BC",10,1.023,"banana","pear","","2016_Oct_18_1602"
4,2,2,48,"XY",5,1.708,"orange","strawberry","","2016_Oct_18_1602"
4,2,2,49,"AC",10,2.771,"banana","apple","","2016_Oct_18_1602"
4,2,2,50,"B",10,1.523,"pear","","","2016_Oct_18_1602"
4,2,2,51,"A",10,1.021,"","apple","","2016_Oct_18_1602"
4,2,2,52,"BY",10,1.177,"strawberry","pear","","2016_Oct_18_1602"
4,2,2,53,"XY",5,1.895,"strawberry","orange","","2016_Oct_18_1602"
4,2,2,54,"AC",5,2.382,"apple","banana","","2016_Oct_18_1602"
4,2,2,55,"AB",10,1.364,"pear","apple","","2016_Oct_18_1602"
4,2,2,56,"CX",5,3.583,"banana","orange","","2016_Oct_18_1602"
4,2,2,57,"AX",10,3.773,"orange","apple","","2016_Oct_18_1602"
4,2,2,58,"X",5,1.724,"","orange","","2016_Oct_18_1602"
4,2,2,59,"AX",10,3.601,"apple","orange","","2016_Oct_18_1602"
4,2,2,60,"B",10,0.974,"","pear","","2016_Oct_18_1602"
4,2,3,61,"B",10,0.788,"pear","","","2016_Oct_18_1602"
4,2,3,62,"XY",5,1.96,"strawberry","orange","","2016_Oct_18_1602"
4,2,3,63,"A",10,1.525,"","apple","","2016_Oct_18_1602"
4,2,3,64,"CX",5,1.989,"banana","orange","","2016_Oct_18_1602"
4,2,3,65,"BX",10,2.302,"orange","pear","","2016_Oct_18_1602"
4,2,3,66,"CY",0,1.943,"banana","strawberry","","2016_Oct_18_1602"
4,2,3,67,"B",10,1.271,"","pear","","2016_Oct_18_1602"
4,2,3,68,"AX",10,2.335,"apple","orange","","2016_Oct_18_1602"
4,2,3,69,"X",5,1.599,"orange","","","2016_Oct_18_1602"
4,2,3,70,"C",0,1.333,"banana","","","2016_Oct_18_1602"
4,2,3,71,"CX",5,2.099,"orange","banana","","2016_Oct_18_1602"
4,2,3,72,"Y",0,3.398,"strawberry","","","2016_Oct_18_1602"
4,2,3,73,"X",5,1.946,"","orange","","2016_Oct_18_1602"
4,2,3,74,"BX",10,2.802,"pear","orange","","2016_Oct_18_1602"
4,2,3,75,"AY",10,4.744,"apple","strawberry","","2016_Oct_18_1602"
4,2,3,76,"AC",10,1.005,"apple","banana","","2016_Oct_18_1602"
4,2,3,77,"BY",10,0.833,"strawberry","pear","","2016_Oct_18_1602"
4,2,3,78,"C",0,1.695,"","banana","","2016_Oct_18_1602"
4,2,3,79,"AC",10,2.492,"banana","apple","","2016_Oct_18_1602"
4,2,3,80,"BY",10,1.648,"pear","strawberry","","2016_Oct_18_1602"
4,2,3,81,"A",10,1.536,"apple","","","2016_Oct_18_1602"
4,2,3,82,"BC",10,1.711,"banana","pear","","2016_Oct_18_1602"
4,2,3,83,"AB",10,1.037,"apple","pear","","2016_Oct_18_1602"
4,2,3,84,"BC",10,2.382,"pear","banana","","2016_Oct_18_1602"
4,2,3,85,"AB",10,0.973,"pear","apple","","2016_Oct_18_1602"
4,2,3,86,"AX",10,0.944,"orange","apple","","2016_Oct_18_1602"
4,2,3,87,"AY",10,1.052,"strawberry","apple","","2016_Oct_18_1602"
4,2,3,88,"CY",0,2.661,"strawberry","banana","","2016_Oct_18_1602"
4,2,3,89,"XY",5,1.429,"orange","strawberry","","2016_Oct_18_1602"
4,2,3,90,"Y",0,1.554,"","strawberry","","2016_Oct_18_1602"
4,2,4,91,"AX",10,2.161,"orange","apple","","2016_Oct_18_1602"
4,2,4,92,"AY",10,0.695,"apple","strawberry","","2016_Oct_18_1602"
4,2,4,93,"Y",0,1.536,"strawberry","","","2016_Oct_18_1602"
4,2,4,94,"CY",0,2.477,"strawberry","banana","","2016_Oct_18_1602"
4,2,4,95,"AB",10,2.149,"pear","apple","","2016_Oct_18_1602"
4,2,4,96,"AC",10,1.837,"banana","apple","","2016_Oct_18_1602"
4,2,4,97,"CY",0,3.411,"banana","strawberry","","2016_Oct_18_1602"
4,2,4,98,"Y",0,3.193,"","strawberry","","2016_Oct_18_1602"
4,2,4,99,"C",0,0.802,"","banana","","2016_Oct_18_1602"
4,2,4,100,"C",0,0.818,"banana","","","2016_Oct_18_1602"
4,2,4,101,"BC",10,4.476,"pear","banana","","2016_Oct_18_1602"
4,2,4,102,"CX",5,4.849,"orange","banana","","2016_Oct_18_1602"
4,2,4,103,"AC",10,2.458,"apple","banana","","2016_Oct_18_1602"
4,2,4,104,"A",10,1.349,"apple","","","2016_Oct_18_1602"
4,2,4,105,"AY",10,0.802,"strawberry","apple","","2016_Oct_18_1602"
4,2,4,106,"CX",5,3.054,"banana","orange","","2016_Oct_18_1602"
4,2,4,107,"BX",10,2.786,"pear","orange","","2016_Oct_18_1602"
4,2,4,108,"XY",5,1.43,"strawberry","orange","","2016_Oct_18_1602"
4,2,4,109,"X",5,1.052,"","orange","","2016_Oct_18_1602"
4,2,4,110,"BC",10,2.224,"banana","pear","","2016_Oct_18_1602"
4,2,4,111,"B",10,0.552,"","pear","","2016_Oct_18_1602"
4,2,4,112,"AX",10,1.068,"apple","orange","","2016_Oct_18_1602"
4,2,4,113,"X",5,1.492,"orange","","","2016_Oct_18_1602"
4,2,4,114,"B",10,1.288,"pear","","","2016_Oct_18_1602"
4,2,4,115,"AB",10,2.26,"apple","pear","","2016_Oct_18_1602"
4,2,4,116,"BY",10,2.208,"strawberry","pear","","2016_Oct_18_1602"
4,2,4,117,"XY",5,2.349,"orange","strawberry","","2016_Oct_18_1602"
4,2,4,118,"BY",10,1.833,"pear","strawberry","","2016_Oct_18_1602"
4,2,4,119,"BX",10,2.136,"orange","pear","","2016_Oct_18_1602"
4,2,4,120,"A",10,2.679,"","apple","","2016_Oct_18_1602"
4,2,5,121,"X",5,1.224,"","orange","","2016_Oct_18_1602"
4,2,5,122,"AC",10,1.63,"apple","banana","","2016_Oct_18_1602"
4,2,5,123,"Y",0,2.708,"","strawberry","","2016_Oct_18_1602"
4,2,5,124,"CY",0,1.71,"strawberry","banana","","2016_Oct_18_1602"
4,2,5,125,"A",10,1.57,"apple","","","2016_Oct_18_1602"
4,2,5,126,"BX",10,1.552,"orange","pear","","2016_Oct_18_1602"
4,2,5,127,"CX",5,1.88,"orange","banana","","2016_Oct_18_1602"
4,2,5,128,"BY",10,0.927,"pear","strawberry","","2016_Oct_18_1602"
4,2,5,129,"AY",10,1.567,"strawberry","apple","","2016_Oct_18_1602"
4,2,5,130,"CY",0,1.349,"banana","strawberry","","2016_Oct_18_1602"
4,2,5,131,"B",10,1.302,"pear","","","2016_Oct_18_1602"
4,2,5,132,"BX",10,0.724,"pear","orange","","2016_Oct_18_1602"
4,2,5,133,"CX",5,1.208,"banana","orange","","2016_Oct_18_1602"
4,2,5,134,"BC",10,2.989,"banana","pear","","2016_Oct_18_1602"
4,2,5,135,"C",0,1.552,"","banana","","2016_Oct_18_1602"
4,2,5,136,"A",10,1.474,"","apple","","2016_Oct_18_1602"
4,2,5,137,"Y",0,1.442,"strawberry","","","2016_Oct_18_1602"
4,2,5,138,"B",10,1.637,"","pear","","2016_Oct_18_1602"
4,2,5,139,"XY",5,1.742,"strawberry","orange","","2016_Oct_18_1602"
4,2,5,140,"AX",10,1.677,"apple","orange","","2016_Oct_18_1602"
4,2,5,141,"AC",10,1.599,"banana","apple","","2016_Oct_18_1602"
4,2,5,142,"BC",10,0.974,"pear","banana","","2016_Oct_18_1602"
4,2,5,143,"AY",10,0.849,"apple","strawberry","","2016_Oct_18_1602"
4,2,5,144,"AB",10,0.786,"pear","apple","","2016_Oct_18_1602"
4,2,5,145,"X",5,1.32,"orange","","","2016_Oct_18_1602"
4,2,5,146,"BY",10,1.63,"strawberry","pear","","2016_Oct_18_1602"
4,2,5,147,"XY",5,1.615,"orange","strawberry","","2016_Oct_18_1602"
4,2,5,148,"C",0,2.302,"banana","","","2016_Oct_18_1602"
4,2,5,149,"AX",10,2.43,"orange","apple","","2016_Oct_18_1602"
4,2,5,150,"AB",10,1.116,"apple","pear","","2016_Oct_18_1602"
4,2,6,151,"C",0,2.052,"","banana","","2016_Oct_18_1602"
4,2,6,152,"BC",10,1.413,"banana","pear","","2016_Oct_18_1602"
4,2,6,153,"B",10,0.646,"","pear","","2016_Oct_18_1602"
4,2,6,154,"CY",0,1.565,"strawberry","banana","","2016_Oct_18_1602"
4,2,6,155,"X",5,1.246,"","orange","","2016_Oct_18_1602"
4,2,6,156,"A",10,3.058,"apple","","","2016_Oct_18_1602"
4,2,6,157,"CX",5,2.349,"orange","banana","","2016_Oct_18_1602"
4,2,6,158,"AY",10,2.802,"strawberry","apple","","2016_Oct_18_1602"
4,2,6,159,"AC",10,0.96,"banana","apple","","2016_Oct_18_1602"
4,2,6,160,"BX",10,1.223,"orange","pear","","2016_Oct_18_1602"
4,2,6,161,"AB",10,0.723,"pear","apple","","2016_Oct_18_1602"
4,2,6,162,"CY",0,1.804,"banana","strawberry","","2016_Oct_18_1602"
4,2,6,163,"CX",5,1.476,"banana","orange","","2016_Oct_18_1602"
4,2,6,164,"AY",10,2.804,"apple","strawberry","","2016_Oct_18_1602"
4,2,6,165,"B",10,0.786,"pear","","","2016_Oct_18_1602"
4,2,6,166,"C",0,1.662,"banana","","","2016_Oct_18_1602"
4,2,6,167,"AC",10,1.898,"apple","banana","","2016_Oct_18_1602"
4,2,6,168,"XY",5,1.679,"strawberry","orange","","2016_Oct_18_1602"
4,2,6,169,"XY",5,1.192,"orange","strawberry","","2016_Oct_18_1602"
4,2,6,170,"AX",10,1.905,"apple","orange","","2016_Oct_18_1602"
4,2,6,171,"AX",10,1.177,"orange","apple","","2016_Oct_18_1602"
4,2,6,172,"A",10,2.755,"","apple","","2016_Oct_18_1602"
4,2,6,173,"BY",10,1.899,"pear","strawberry","","2016_Oct_18_1602"
4,2,6,174,"Y",0,1.773,"strawberry","","","2016_Oct_18_1602"
4,2,6,175,"BY",10,1.445,"strawberry","pear","","2016_Oct_18_1602"
4,2,6,176,"AB",10,0.911,"apple","pear","","2016_Oct_18_1602"
4,2,6,177,"BX",10,1.317,"pear","orange","","2016_Oct_18_1602"
4,2,6,178,"X",5,1.507,"orange","","","2016_Oct_18_1602"
4,2,6,179,"Y",0,1.318,"","strawberry","","2016_Oct_18_1602"
4,2,6,180,"BC",10,2.321,"pear","banana","","2016_Oct_18_1602"
5,2,1,1,"B",10,10.209,"","banana","","2016_Oct_19_1457"
5,2,1,2,"CX",10,18.133,"orange","pear","","2016_Oct_19_1457"
5,2,1,3,"Y",0,4.177,"","strawberry","","2016_Oct_19_1457"
5,2,1,4,"BC",10,6.586,"pear","banana","","2016_Oct_19_1457"
5,2,1,5,"BY",10,6.274,"strawberry","banana","","2016_Oct_19_1457"
5,2,1,6,"AY",9,16.884,"apple","strawberry","","2016_Oct_19_1457"
5,2,1,7,"AB",10,3.24,"banana","apple","","2016_Oct_19_1457"
5,2,1,8,"CY",0,8.116,"strawberry","pear","","2016_Oct_19_1457"
5,2,1,9,"AC",9,17.022,"apple","pear","","2016_Oct_19_1457"
5,2,1,10,"CX",9,2.365,"pear","orange","","2016_Oct_19_1457"
5,2,1,11,"X",10,2.304,"","orange","","2016_Oct_19_1457"
5,2,1,12,"X",10,5.162,"orange","","","2016_Oct_19_1457"
5,2,1,13,"CY",0,4.052,"pear","strawberry","","2016_Oct_19_1457"
5,2,1,14,"AX",10,7.854,"apple","orange","","2016_Oct_19_1457"
5,2,1,15,"B",10,2.302,"banana","","","2016_Oct_19_1457"
5,2,1,16,"AX",10,2.912,"orange","apple","","2016_Oct_19_1457"
5,2,1,17,"C",0,2.601,"pear","","","2016_Oct_19_1457"
5,2,1,18,"XY",9,5.802,"orange","strawberry","","2016_Oct_19_1457"
5,2,1,19,"AB",10,3.445,"apple","banana","","2016_Oct_19_1457"
5,2,1,20,"AC",9,13.334,"pear","apple","","2016_Oct_19_1457"
5,2,1,21,"BX",10,2.005,"orange","banana","","2016_Oct_19_1457"
5,2,1,22,"BC",9,3.755,"banana","pear","","2016_Oct_19_1457"
5,2,1,23,"BX",10,2.32,"banana","orange","","2016_Oct_19_1457"
5,2,1,24,"A",10,4.787,"apple","","","2016_Oct_19_1457"
5,2,1,25,"Y",0,2.255,"strawberry","","","2016_Oct_19_1457"
5,2,1,26,"A",10,2.911,"","apple","","2016_Oct_19_1457"
5,2,1,27,"XY",9,4.521,"strawberry","orange","","2016_Oct_19_1457"
5,2,1,28,"AY",9,2.401,"strawberry","apple","","2016_Oct_19_1457"
5,2,1,29,"C",0,3.177,"","pear","","2016_Oct_19_1457"
5,2,1,30,"BY",9,10.943,"banana","strawberry","","2016_Oct_19_1457"
5,2,2,31,"AB",10,5.896,"banana","apple","","2016_Oct_19_1457"
5,2,2,32,"B",10,2.177,"","banana","","2016_Oct_19_1457"
5,2,2,33,"XY",9,8.896,"strawberry","orange","","2016_Oct_19_1457"
5,2,2,34,"C",0,4.88,"pear","","","2016_Oct_19_1457"
5,2,2,35,"CY",0,9.477,"strawberry","pear","","2016_Oct_19_1457"
5,2,2,36,"BY",9,7.773,"banana","strawberry","","2016_Oct_19_1457"
5,2,2,37,"AX",10,1.381,"orange","apple","","2016_Oct_19_1457"
5,2,2,38,"A",10,0.739,"apple","","","2016_Oct_19_1457"
5,2,2,39,"XY",9,3.365,"orange","strawberry","","2016_Oct_19_1457"
5,2,2,40,"X",10,1.193,"orange","","","2016_Oct_19_1457"
5,2,2,41,"X",10,1.24,"","orange","","2016_Oct_19_1457"
5,2,2,42,"A",10,1.043,"","apple","","2016_Oct_19_1457"
5,2,2,43,"C",0,1.54,"","pear","","2016_Oct_19_1457"
5,2,2,44,"B",10,1.63,"banana","","","2016_Oct_19_1457"
5,2,2,45,"AC",9,2.286,"pear","apple","","2016_Oct_19_1457"
5,2,2,46,"CY",0,1.974,"pear","strawberry","","2016_Oct_19_1457"
5,2,2,47,"AC",9,3.568,"apple","pear","","2016_Oct_19_1457"
5,2,2,48,"AB",10,1.364,"apple","banana","","2016_Oct_19_1457"
5,2,2,49,"BC",9,1.411,"pear","banana","","2016_Oct_19_1457"
5,2,2,50,"CX",9,1.489,"pear","orange","","2016_Oct_19_1457"
5,2,2,51,"CX",9,1.32,"orange","pear","","2016_Oct_19_1457"
5,2,2,52,"AY",9,2.302,"apple","strawberry","","2016_Oct_19_1457"
5,2,2,53,"BY",9,4.74,"strawberry","banana","","2016_Oct_19_1457"
5,2,2,54,"Y",0,1.943,"","strawberry","","2016_Oct_19_1457"
5,2,2,55,"AX",10,1.368,"apple","orange","","2016_Oct_19_1457"
5,2,2,56,"BX",10,3.583,"banana","orange","","2016_Oct_19_1457"
5,2,2,57,"Y",0,1.663,"strawberry","","","2016_Oct_19_1457"
5,2,2,58,"BC",9,3.771,"banana","pear","","2016_Oct_19_1457"
5,2,2,59,"BX",10,3.336,"orange","banana","","2016_Oct_19_1457"
5,2,2,60,"AY",9,1.396,"strawberry","apple","","2016_Oct_19_1457"
5,2,3,61,"AB",10,12.773,"apple","banana","","2016_Oct_19_1457"
5,2,3,62,"XY",9,2.304,"strawberry","orange","","2016_Oct_19_1457"
5,2,3,63,"BX",10,5.693,"banana","orange","","2016_Oct_19_1457"
5,2,3,64,"BC",9,4.71,"banana","pear","","2016_Oct_19_1457"
5,2,3,65,"AX",10,2.412,"orange","apple","","2016_Oct_19_1457"
5,2,3,66,"BY",9,7.351,"banana","strawberry","","2016_Oct_19_1457"
5,2,3,67,"BY",9,1.021,"strawberry","banana","","2016_Oct_19_1457"
5,2,3,68,"CX",9,1.505,"pear","orange","","2016_Oct_19_1457"
5,2,3,69,"A",10,1.773,"","apple","","2016_Oct_19_1457"
5,2,3,70,"Y",1,4.679,"strawberry","","","2016_Oct_19_1457"
5,2,3,71,"BC",9,10.459,"pear","banana","","2016_Oct_19_1457"
5,2,3,72,"CY",0,4.161,"strawberry","pear","","2016_Oct_19_1457"
5,2,3,73,"A",10,1.366,"apple","","","2016_Oct_19_1457"
5,2,3,74,"C",0,1.88,"pear","","","2016_Oct_19_1457"
5,2,3,75,"B",9,2.318,"banana","","","2016_Oct_19_1457"
5,2,3,76,"AC",9,4.38,"apple","pear","","2016_Oct_19_1457"
5,2,3,77,"AY",9,1.82,"strawberry","apple","","2016_Oct_19_1457"
5,2,3,78,"AY",9,5.35,"apple","strawberry","","2016_Oct_19_1457"
5,2,3,79,"X",10,3.599,"orange","","","2016_Oct_19_1457"
5,2,3,80,"XY",9,1.117,"orange","strawberry","","2016_Oct_19_1457"
5,2,3,81,"B",10,1.084,"","banana","","2016_Oct_19_1457"
5,2,3,82,"AB",10,1.367,"banana","apple","","2016_Oct_19_1457"
5,2,3,83,"C",1,1.739,"","pear","","2016_Oct_19_1457"
5,2,3,84,"CX",9,5.646,"orange","pear","","2016_Oct_19_1457"
5,2,3,85,"AX",9,2.099,"apple","orange","","2016_Oct_19_1457"
5,2,3,86,"X",10,3.021,"","orange","","2016_Oct_19_1457"
5,2,3,87,"CY",0,7.724,"pear","strawberry","","2016_Oct_19_1457"
5,2,3,88,"AC",9,1.552,"pear","apple","","2016_Oct_19_1457"
5,2,3,89,"BX",10,0.992,"orange","banana","","2016_Oct_19_1457"
5,2,3,90,"Y",1,1.862,"","strawberry","","2016_Oct_19_1457"
5,2,4,91,"CX",9,2.242,"orange","pear","","2016_Oct_19_1457"
5,2,4,92,"C",0,1.334,"pear","","","2016_Oct_19_1457"
5,2,4,93,"C",0,0.817,"","pear","","2016_Oct_19_1457"
5,2,4,94,"A",10,2.115,"","apple","","2016_Oct_19_1457"
5,2,4,95,"BY",9,1.677,"banana","strawberry","","2016_Oct_19_1457"
5,2,4,96,"AX",10,2.005,"apple","orange","","2016_Oct_19_1457"
5,2,4,97,"BY",9,1.398,"strawberry","banana","","2016_Oct_19_1457"
5,2,4,98,"BC",9,4.177,"banana","pear","","2016_Oct_19_1457"
5,2,4,99,"CY",0,2.037,"pear","strawberry","","2016_Oct_19_1457"
5,2,4,100,"B",10,1.099,"","banana","","2016_Oct_19_1457"
5,2,4,101,"BX",10,0.789,"banana","orange","","2016_Oct_19_1457"
5,2,4,102,"BC",10,0.708,"pear","banana","","2016_Oct_19_1457"
5,2,4,103,"XY",9,0.992,"strawberry","orange","","2016_Oct_19_1457"
5,2,4,104,"XY",9,2.787,"orange","strawberry","","2016_Oct_19_1457"
5,2,4,105,"CY",1,2.537,"strawberry","pear","","2016_Oct_19_1457"
5,2,4,106,"Y",1,1.208,"strawberry","","","2016_Oct_19_1457"
5,2,4,107,"B",9,1.458,"banana","","","2016_Oct_19_1457"
5,2,4,108,"BX",10,1.099,"orange","banana","","2016_Oct_19_1457"
5,2,4,109,"AX",10,4.177,"orange","apple","","2016_Oct_19_1457"
5,2,4,110,"Y",0,1.242,"","strawberry","","2016_Oct_19_1457"
5,2,4,111,"AB",10,2.911,"apple","banana","","2016_Oct_19_1457"
5,2,4,112,"AC",10,2.008,"apple","pear","","2016_Oct_19_1457"
5,2,4,113,"CX",10,1.083,"pear","orange","","2016_Oct_19_1457"
5,2,4,114,"AY",10,5.382,"strawberry","apple","","2016_Oct_19_1457"
5,2,4,115,"X",10,0.536,"","orange","","2016_Oct_19_1457"
5,2,4,116,"A",10,0.708,"apple","","","2016_Oct_19_1457"
5,2,4,117,"X",10,0.615,"orange","","","2016_Oct_19_1457"
5,2,4,118,"AC",10,1.052,"pear","apple","","2016_Oct_19_1457"
5,2,4,119,"AB",10,0.927,"banana","apple","","2016_Oct_19_1457"
5,2,4,120,"AY",9,1.583,"apple","strawberry","","2016_Oct_19_1457"
5,2,5,121,"XY",9,3.708,"orange","strawberry","","2016_Oct_19_1457"
5,2,5,122,"X",9,0.802,"orange","","","2016_Oct_19_1457"
5,2,5,123,"AX",9,1.114,"orange","apple","","2016_Oct_19_1457"
5,2,5,124,"AC",9,1.133,"apple","pear","","2016_Oct_19_1457"
5,2,5,125,"B",10,0.896,"banana","","","2016_Oct_19_1457"
5,2,5,126,"B",10,0.661,"","banana","","2016_Oct_19_1457"
5,2,5,127,"CY",0,2.286,"strawberry","pear","","2016_Oct_19_1457"
5,2,5,128,"AY",9,2.036,"apple","strawberry","","2016_Oct_19_1457"
5,2,5,129,"BX",10,1.208,"orange","banana","","2016_Oct_19_1457"
5,2,5,130,"Y",0,1.476,"","strawberry","","2016_Oct_19_1457"
5,2,5,131,"BY",9,1.521,"banana","strawberry","","2016_Oct_19_1457"
5,2,5,132,"XY",10,2.445,"strawberry","orange","","2016_Oct_19_1457"
5,2,5,133,"CY",0,2.49,"pear","strawberry","","2016_Oct_19_1457"
5,2,5,134,"A",10,1.195,"","apple","","2016_Oct_19_1457"
5,2,5,135,"AC",9,1.896,"pear","apple","","2016_Oct_19_1457"
5,2,5,136,"A",10,0.88,"apple","","","2016_Oct_19_1457"
5,2,5,137,"AB",10,0.82,"apple","banana","","2016_Oct_19_1457"
5,2,5,138,"AB",10,0.882,"banana","apple","","2016_Oct_19_1457"
5,2,5,139,"BC",9,1.614,"banana","pear","","2016_Oct_19_1457"
5,2,5,140,"BY",10,0.959,"strawberry","banana","","2016_Oct_19_1457"
5,2,5,141,"BX",10,1.086,"banana","orange","","2016_Oct_19_1457"
5,2,5,142,"AX",10,0.958,"apple","orange","","2016_Oct_19_1457"
5,2,5,143,"C",0,3.349,"pear","","","2016_Oct_19_1457"
5,2,5,144,"CX",9,1.757,"pear","orange","","2016_Oct_19_1457"
5,2,5,145,"CX",9,1.13,"orange","pear","","2016_Oct_19_1457"
5,2,5,146,"X",10,1.458,"","orange","","2016_Oct_19_1457"
5,2,5,147,"AY",9,3.882,"strawberry","apple","","2016_Oct_19_1457"
5,2,5,148,"C",1,1.396,"","pear","","2016_Oct_19_1457"
5,2,5,149,"BC",10,1.117,"pear","banana","","2016_Oct_19_1457"
5,2,5,150,"Y",0,1.958,"strawberry","","","2016_Oct_19_1457"
5,2,6,151,"X",10,0.99,"orange","","","2016_Oct_19_1457"
5,2,6,152,"AX",10,0.911,"apple","orange","","2016_Oct_19_1457"
5,2,6,153,"BC",9,2.646,"banana","pear","","2016_Oct_19_1457"
5,2,6,154,"AY",9,1.161,"apple","strawberry","","2016_Oct_19_1457"
5,2,6,155,"B",9,1.24,"","banana","","2016_Oct_19_1457"
5,2,6,156,"BC",9,1.052,"pear","banana","","2016_Oct_19_1457"
5,2,6,157,"CY",0,2.804,"strawberry","pear","","2016_Oct_19_1457"
5,2,6,158,"CX",10,1.57,"pear","orange","","2016_Oct_19_1457"
5,2,6,159,"C",0,1.429,"","pear","","2016_Oct_19_1457"
5,2,6,160,"BX",10,2.505,"banana","orange","","2016_Oct_19_1457"
5,2,6,161,"XY",10,0.974,"orange","strawberry","","2016_Oct_19_1457"
5,2,6,162,"AX",10,0.802,"orange","apple","","2016_Oct_19_1457"
5,2,6,163,"X",10,0.802,"","orange","","2016_Oct_19_1457"
5,2,6,164,"XY",10,1.552,"strawberry","orange","","2016_Oct_19_1457"
5,2,6,165,"BY",10,1.833,"strawberry","banana","","2016_Oct_19_1457"
5,2,6,166,"AY",10,1.195,"strawberry","apple","","2016_Oct_19_1457"
5,2,6,167,"CY",0,1.932,"pear","strawberry","","2016_Oct_19_1457"
5,2,6,168,"AC",9,1.458,"apple","pear","","2016_Oct_19_1457"
5,2,6,169,"AB",10,4.115,"banana","apple","","2016_Oct_19_1457"
5,2,6,170,"CX",9,1.333,"orange","pear","","2016_Oct_19_1457"
5,2,6,171,"Y",0,1.521,"","strawberry","","2016_Oct_19_1457"
5,2,6,172,"C",1,2.27,"pear","","","2016_Oct_19_1457"
5,2,6,173,"AB",10,5.355,"apple","banana","","2016_Oct_19_1457"
5,2,6,174,"Y",0,1.431,"strawberry","","","2016_Oct_19_1457"
5,2,6,175,"A",10,1.943,"apple","","","2016_Oct_19_1457"
5,2,6,176,"A",10,0.786,"","apple","","2016_Oct_19_1457"
5,2,6,177,"BX",10,1.617,"orange","banana","","2016_Oct_19_1457"
5,2,6,178,"AC",9,3.693,"pear","apple","","2016_Oct_19_1457"
5,2,6,179,"B",10,0.927,"banana","","","2016_Oct_19_1457"
5,2,6,180,"BY",10,0.818,"banana","strawberry","","2016_Oct_19_1457"
6,2,1,1,"BY",10,14.85,"strawberry","orange","","2016_Oct_19_1507"
6,2,1,2,"A",10,1.382,"pear","","","2016_Oct_19_1507"
6,2,1,3,"Y",0,2.804,"","orange","","2016_Oct_19_1507"
6,2,1,4,"AY",10,2.867,"orange","pear","","2016_Oct_19_1507"
6,2,1,5,"CX",0,3.099,"apple","banana","","2016_Oct_19_1507"
6,2,1,6,"BY",10,3.036,"orange","strawberry","","2016_Oct_19_1507"
6,2,1,7,"AX",10,1.755,"pear","apple","","2016_Oct_19_1507"
6,2,1,8,"C",0,1.536,"","banana","","2016_Oct_19_1507"
6,2,1,9,"B",10,3.068,"","strawberry","","2016_Oct_19_1507"
6,2,1,10,"CX",0,2.193,"banana","apple","","2016_Oct_19_1507"
6,2,1,11,"C",0,1.161,"banana","","","2016_Oct_19_1507"
6,2,1,12,"XY",0,1.489,"orange","apple","","2016_Oct_19_1507"
6,2,1,13,"BC",10,1.536,"strawberry","banana","","2016_Oct_19_1507"
6,2,1,14,"BX",10,1.177,"strawberry","apple","","2016_Oct_19_1507"
6,2,1,15,"AC",10,1.083,"pear","banana","","2016_Oct_19_1507"
6,2,1,16,"X",0,1.383,"apple","","","2016_Oct_19_1507"
6,2,1,17,"AB",10,2.911,"pear","strawberry","","2016_Oct_19_1507"
6,2,1,18,"AC",10,5.521,"banana","pear","","2016_Oct_19_1507"
6,2,1,19,"XY",0,1.974,"apple","orange","","2016_Oct_19_1507"
6,2,1,20,"CY",0,2.896,"orange","banana","","2016_Oct_19_1507"
6,2,1,21,"AX",10,1.648,"apple","pear","","2016_Oct_19_1507"
6,2,1,22,"X",0,1.693,"","apple","","2016_Oct_19_1507"
6,2,1,23,"BX",10,1.992,"apple","strawberry","","2016_Oct_19_1507"
6,2,1,24,"AY",10,1.849,"pear","orange","","2016_Oct_19_1507"
6,2,1,25,"CY",0,1.974,"banana","orange","","2016_Oct_19_1507"
6,2,1,26,"AB",10,2.271,"strawberry","pear","","2016_Oct_19_1507"
6,2,1,27,"Y",0,2.349,"orange","","","2016_Oct_19_1507"
6,2,1,28,"B",10,1.38,"strawberry","","","2016_Oct_19_1507"
6,2,1,29,"A",10,0.989,"","pear","","2016_Oct_19_1507"
6,2,1,30,"BC",10,1.583,"banana","strawberry","","2016_Oct_19_1507"
6,2,2,31,"CX",0,2.646,"apple","banana","","2016_Oct_19_1507"
6,2,2,32,"Y",0,1.302,"","orange","","2016_Oct_19_1507"
6,2,2,33,"X",0,0.755,"","apple","","2016_Oct_19_1507"
6,2,2,34,"A",10,1.88,"","pear","","2016_Oct_19_1507"
6,2,2,35,"B",10,0.976,"strawberry","","","2016_Oct_19_1507"
6,2,2,36,"AB",10,1.099,"pear","strawberry","","2016_Oct_19_1507"
6,2,2,37,"XY",0,1.458,"apple","orange","","2016_Oct_19_1507"
6,2,2,38,"BY",10,1.818,"orange","strawberry","","2016_Oct_19_1507"
6,2,2,39,"AX",10,1.289,"pear","apple","","2016_Oct_19_1507"
6,2,2,40,"BC",10,1.459,"strawberry","banana","","2016_Oct_19_1507"
6,2,2,41,"CY",0,1.349,"banana","orange","","2016_Oct_19_1507"
6,2,2,42,"CX",0,1.335,"banana","apple","","2016_Oct_19_1507"
6,2,2,43,"Y",0,1.007,"orange","","","2016_Oct_19_1507"
6,2,2,44,"A",10,1.193,"pear","","","2016_Oct_19_1507"
6,2,2,45,"BX",10,1.617,"apple","strawberry","","2016_Oct_19_1507"
6,2,2,46,"AB",10,0.88,"strawberry","pear","","2016_Oct_19_1507"
6,2,2,47,"C",0,2.007,"banana","","","2016_Oct_19_1507"
6,2,2,48,"AY",10,2.333,"orange","pear","","2016_Oct_19_1507"
6,2,2,49,"C",0,1.286,"","banana","","2016_Oct_19_1507"
6,2,2,50,"X",0,1.474,"apple","","","2016_Oct_19_1507"
6,2,2,51,"AY",10,1.489,"pear","orange","","2016_Oct_19_1507"
6,2,2,52,"CY",0,1.63,"orange","banana","","2016_Oct_19_1507"
6,2,2,53,"AC",10,1.226,"banana","pear","","2016_Oct_19_1507"
6,2,2,54,"BX",10,1.38,"strawberry","apple","","2016_Oct_19_1507"
6,2,2,55,"AX",10,0.942,"apple","pear","","2016_Oct_19_1507"
6,2,2,56,"B",10,0.99,"","strawberry","","2016_Oct_19_1507"
6,2,2,57,"AC",10,1.13,"pear","banana","","2016_Oct_19_1507"
6,2,2,58,"BY",10,1.336,"strawberry","orange","","2016_Oct_19_1507"
6,2,2,59,"XY",0,1.505,"orange","apple","","2016_Oct_19_1507"
6,2,2,60,"BC",10,1.677,"banana","strawberry","","2016_Oct_19_1507"
6,2,3,61,"A",10,1.146,"pear","","","2016_Oct_19_1507"
6,2,3,62,"X",0,2.085,"apple","","","2016_Oct_19_1507"
6,2,3,63,"BX",10,1.398,"apple","strawberry","","2016_Oct_19_1507"
6,2,3,64,"CX",0,1.77,"apple","banana","","2016_Oct_19_1507"
6,2,3,65,"Y",0,1.556,"","orange","","2016_Oct_19_1507"
6,2,3,66,"AB",10,1.695,"strawberry","pear","","2016_Oct_19_1507"
6,2,3,67,"BX",10,1.521,"strawberry","apple","","2016_Oct_19_1507"
6,2,3,68,"AB",10,0.896,"pear","strawberry","","2016_Oct_19_1507"
6,2,3,69,"Y",0,2.396,"orange","","","2016_Oct_19_1507"
6,2,3,70,"AC",10,1.739,"banana","pear","","2016_Oct_19_1507"
6,2,3,71,"BY",10,0.661,"orange","strawberry","","2016_Oct_19_1507"
6,2,3,72,"C",0,1.616,"","banana","","2016_Oct_19_1507"
6,2,3,73,"BC",10,3.13,"strawberry","banana","","2016_Oct_19_1507"
6,2,3,74,"CY",0,1.335,"banana","orange","","2016_Oct_19_1507"
6,2,3,75,"BY",10,1.13,"strawberry","orange","","2016_Oct_19_1507"
6,2,3,76,"AX",10,2.929,"pear","apple","","2016_Oct_19_1507"
6,2,3,77,"XY",0,1.615,"orange","apple","","2016_Oct_19_1507"
6,2,3,78,"AY",10,1.07,"pear","orange","","2016_Oct_19_1507"
6,2,3,79,"BC",10,1.021,"banana","strawberry","","2016_Oct_19_1507"
6,2,3,80,"CX",0,1.101,"banana","apple","","2016_Oct_19_1507"
6,2,3,81,"X",1,1.24,"","apple","","2016_Oct_19_1507"
6,2,3,82,"CY",0,4.88,"orange","banana","","2016_Oct_19_1507"
6,2,3,83,"AY",10,2.349,"orange","pear","","2016_Oct_19_1507"
6,2,3,84,"AX",10,2.099,"apple","pear","","2016_Oct_19_1507"
6,2,3,85,"XY",0,1.664,"apple","orange","","2016_Oct_19_1507"
6,2,3,86,"B",10,1.617,"strawberry","","","2016_Oct_19_1507"
6,2,3,87,"B",10,0.929,"","strawberry","","2016_Oct_19_1507"
6,2,3,88,"AC",10,1.677,"pear","banana","","2016_Oct_19_1507"
6,2,3,89,"A",10,0.864,"","pear","","2016_Oct_19_1507"
6,2,3,90,"C",0,2.005,"banana","","","2016_Oct_19_1507"
6,2,4,91,"Y",0,1.007,"orange","","","2016_Oct_19_1507"
6,2,4,92,"AX",10,1.771,"apple","pear","","2016_Oct_19_1507"
6,2,4,93,"C",0,4.255,"","banana","","2016_Oct_19_1507"
6,2,4,94,"AX",10,2.802,"pear","apple","","2016_Oct_19_1507"
6,2,4,95,"BY",10,1.802,"orange","strawberry","","2016_Oct_19_1507"
6,2,4,96,"AY",10,3.427,"pear","orange","","2016_Oct_19_1507"
6,2,4,97,"X",0,1.288,"apple","","","2016_Oct_19_1507"
6,2,4,98,"X",0,1.427,"","apple","","2016_Oct_19_1507"
6,2,4,99,"BC",10,1.552,"strawberry","banana","","2016_Oct_19_1507"
6,2,4,100,"CY",0,1.693,"banana","orange","","2016_Oct_19_1507"
6,2,4,101,"B",10,1.521,"strawberry","","","2016_Oct_19_1507"
6,2,4,102,"B",10,1.445,"","strawberry","","2016_Oct_19_1507"
6,2,4,103,"Y",0,1.788,"","orange","","2016_Oct_19_1507"
6,2,4,104,"AB",10,2.099,"strawberry","pear","","2016_Oct_19_1507"
6,2,4,105,"C",0,1.599,"banana","","","2016_Oct_19_1507"
6,2,4,106,"CX",0,4.13,"banana","apple","","2016_Oct_19_1507"
6,2,4,107,"AY",10,1.974,"orange","pear","","2016_Oct_19_1507"
6,2,4,108,"BY",10,1.083,"strawberry","orange","","2016_Oct_19_1507"
6,2,4,109,"BX",10,0.974,"apple","strawberry","","2016_Oct_19_1507"
6,2,4,110,"AC",10,0.849,"pear","banana","","2016_Oct_19_1507"
6,2,4,111,"XY",0,1.583,"apple","orange","","2016_Oct_19_1507"
6,2,4,112,"BC",10,1.599,"banana","strawberry","","2016_Oct_19_1507"
6,2,4,113,"A",10,0.819,"","pear","","2016_Oct_19_1507"
6,2,4,114,"XY",0,1.509,"orange","apple","","2016_Oct_19_1507"
6,2,4,115,"BX",10,1.32,"strawberry","apple","","2016_Oct_19_1507"
6,2,4,116,"AB",10,0.896,"pear","strawberry","","2016_Oct_19_1507"
6,2,4,117,"A",10,0.739,"pear","","","2016_Oct_19_1507"
6,2,4,118,"AC",10,0.695,"banana","pear","","2016_Oct_19_1507"
6,2,4,119,"CX",0,1.739,"apple","banana","","2016_Oct_19_1507"
6,2,4,120,"CY",0,1.005,"orange","banana","","2016_Oct_19_1507"
6,2,5,121,"AB",10,1.507,"strawberry","pear","","2016_Oct_19_1507"
6,2,5,122,"AY",10,0.755,"orange","pear","","2016_Oct_19_1507"
6,2,5,123,"XY",0,1.286,"orange","apple","","2016_Oct_19_1507"
6,2,5,124,"X",0,1.224,"","apple","","2016_Oct_19_1507"
6,2,5,125,"BC",10,1.833,"banana","strawberry","","2016_Oct_19_1507"
6,2,5,126,"A",10,0.802,"pear","","","2016_Oct_19_1507"
6,2,5,127,"CX",0,1.568,"apple","banana","","2016_Oct_19_1507"
6,2,5,128,"AC",10,1.677,"pear","banana","","2016_Oct_19_1507"
6,2,5,129,"Y",0,1.568,"orange","","","2016_Oct_19_1507"
6,2,5,130,"Y",0,1.255,"","orange","","2016_Oct_19_1507"
6,2,5,131,"C",0,1.052,"banana","","","2016_Oct_19_1507"
6,2,5,132,"AY",10,1.599,"pear","orange","","2016_Oct_19_1507"
6,2,5,133,"BX",10,0.74,"apple","strawberry","","2016_Oct_19_1507"
6,2,5,134,"CX",0,1.677,"banana","apple","","2016_Oct_19_1507"
6,2,5,135,"BY",10,1.286,"strawberry","orange","","2016_Oct_19_1507"
6,2,5,136,"AX",10,1.13,"pear","apple","","2016_Oct_19_1507"
6,2,5,137,"X",0,1.583,"apple","","","2016_Oct_19_1507"
6,2,5,138,"B",10,1.536,"strawberry","","","2016_Oct_19_1507"
6,2,5,139,"BC",10,1.042,"strawberry","banana","","2016_Oct_19_1507"
6,2,5,140,"A",10,0.865,"","pear","","2016_Oct_19_1507"
6,2,5,141,"AC",10,0.895,"banana","pear","","2016_Oct_19_1507"
6,2,5,142,"CY",0,1.599,"orange","banana","","2016_Oct_19_1507"
6,2,5,143,"BX",10,1.318,"strawberry","apple","","2016_Oct_19_1507"
6,2,5,144,"C",0,1.741,"","banana","","2016_Oct_19_1507"
6,2,5,145,"AX",10,1.271,"apple","pear","","2016_Oct_19_1507"
6,2,5,146,"B",10,1.443,"","strawberry","","2016_Oct_19_1507"
6,2,5,147,"AB",10,0.911,"pear","strawberry","","2016_Oct_19_1507"
6,2,5,148,"CY",0,2.146,"banana","orange","","2016_Oct_19_1507"
6,2,5,149,"XY",0,2.771,"apple","orange","","2016_Oct_19_1507"
6,2,5,150,"BY",10,1.818,"orange","strawberry","","2016_Oct_19_1507"
6,2,6,151,"AY",10,1.396,"pear","orange","","2016_Oct_19_1507"
6,2,6,152,"AY",10,0.615,"orange","pear","","2016_Oct_19_1507"
6,2,6,153,"CX",0,1.63,"apple","banana","","2016_Oct_19_1507"
6,2,6,154,"BC",10,1.413,"banana","strawberry","","2016_Oct_19_1507"
6,2,6,155,"XY",0,1.958,"orange","apple","","2016_Oct_19_1507"
6,2,6,156,"BY",10,1.724,"orange","strawberry","","2016_Oct_19_1507"
6,2,6,157,"AX",10,0.896,"apple","pear","","2016_Oct_19_1507"
6,2,6,158,"C",0,1.458,"","banana","","2016_Oct_19_1507"
6,2,6,159,"CY",0,1.661,"orange","banana","","2016_Oct_19_1507"
6,2,6,160,"B",10,1.427,"","strawberry","","2016_Oct_19_1507"
6,2,6,161,"X",0,1.63,"","apple","","2016_Oct_19_1507"
6,2,6,162,"Y",0,1.38,"","orange","","2016_Oct_19_1507"
6,2,6,163,"A",10,1.583,"","pear","","2016_Oct_19_1507"
6,2,6,164,"XY",0,2.005,"apple","orange","","2016_Oct_19_1507"
6,2,6,165,"CY",0,1.24,"banana","orange","","2016_Oct_19_1507"
6,2,6,166,"BX",10,1.427,"strawberry","apple","","2016_Oct_19_1507"
6,2,6,167,"A",10,1.536,"pear","","","2016_Oct_19_1507"
6,2,6,168,"BC",10,1.239,"strawberry","banana","","2016_Oct_19_1507"
6,2,6,169,"AB",10,0.929,"pear","strawberry","","2016_Oct_19_1507"
6,2,6,170,"B",10,0.82,"strawberry","","","2016_Oct_19_1507"
6,2,6,171,"AC",10,1.005,"pear","banana","","2016_Oct_19_1507"
6,2,6,172,"BY",10,1.286,"strawberry","orange","","2016_Oct_19_1507"
6,2,6,173,"C",0,1.536,"banana","","","2016_Oct_19_1507"
6,2,6,174,"AB",10,1.367,"strawberry","pear","","2016_Oct_19_1507"
6,2,6,175,"AX",10,0.757,"pear","apple","","2016_Oct_19_1507"
6,2,6,176,"BX",10,0.724,"apple","strawberry","","2016_Oct_19_1507"
6,2,6,177,"X",0,1.693,"apple","","","2016_Oct_19_1507"
6,2,6,178,"AC",10,1.646,"banana","pear","","2016_Oct_19_1507"
6,2,6,179,"Y",0,1.99,"orange","","","2016_Oct_19_1507"
6,2,6,180,"CX",0,2.632,"banana","apple","","2016_Oct_19_1507"
7,2,1,1,"Y",6,10.132,"pear","","","2016_Oct_19_1535"
7,2,1,2,"B",5,4.505,"","banana","","2016_Oct_19_1535"
7,2,1,3,"AB",9,4.054,"apple","banana","","2016_Oct_19_1535"
7,2,1,4,"XY",8,5.521,"pear","strawberry","","2016_Oct_19_1535"
7,2,1,5,"AX",10,2.318,"strawberry","apple","","2016_Oct_19_1535"
7,2,1,6,"B",8,4.49,"banana","","","2016_Oct_19_1535"
7,2,1,7,"AC",10,3.068,"apple","orange","","2016_Oct_19_1535"
7,2,1,8,"BC",5,3.943,"orange","banana","","2016_Oct_19_1535"
7,2,1,9,"A",10,2.49,"apple","","","2016_Oct_19_1535"
7,2,1,10,"CY",1,4.162,"pear","orange","","2016_Oct_19_1535"
7,2,1,11,"BY",6,7.633,"pear","banana","","2016_Oct_19_1535"
7,2,1,12,"C",2,4.802,"orange","","","2016_Oct_19_1535"
7,2,1,13,"CY",2,5.037,"orange","pear","","2016_Oct_19_1535"
7,2,1,14,"BX",8,4.302,"strawberry","banana","","2016_Oct_19_1535"
7,2,1,15,"AC",10,2.911,"orange","apple","","2016_Oct_19_1535"
7,2,1,16,"BC",4,6.287,"banana","orange","","2016_Oct_19_1535"
7,2,1,17,"XY",9,5.177,"strawberry","pear","","2016_Oct_19_1535"
7,2,1,18,"Y",5,7.615,"","pear","","2016_Oct_19_1535"
7,2,1,19,"A",10,2.462,"","apple","","2016_Oct_19_1535"
7,2,1,20,"AB",10,2.224,"banana","apple","","2016_Oct_19_1535"
7,2,1,21,"C",2,3.965,"","orange","","2016_Oct_19_1535"
7,2,1,22,"BY",4,3.492,"banana","pear","","2016_Oct_19_1535"
7,2,1,23,"AY",10,2.708,"pear","apple","","2016_Oct_19_1535"
7,2,1,24,"CX",9,3.429,"orange","strawberry","","2016_Oct_19_1535"
7,2,1,25,"BX",9,3.07,"banana","strawberry","","2016_Oct_19_1535"
7,2,1,26,"AY",10,2.088,"apple","pear","","2016_Oct_19_1535"
7,2,1,27,"CX",8,3.981,"strawberry","orange","","2016_Oct_19_1535"
7,2,1,28,"AX",10,2.384,"apple","strawberry","","2016_Oct_19_1535"
7,2,1,29,"X",9,2.896,"","strawberry","","2016_Oct_19_1535"
7,2,1,30,"X",9,4.302,"strawberry","","","2016_Oct_19_1535"
7,2,2,31,"AC",10,2.427,"apple","orange","","2016_Oct_19_1535"
7,2,2,32,"Y",5,3.833,"pear","","","2016_Oct_19_1535"
7,2,2,33,"BY",5,2.224,"pear","banana","","2016_Oct_19_1535"
7,2,2,34,"AX",10,2.115,"strawberry","apple","","2016_Oct_19_1535"
7,2,2,35,"BC",4,2.757,"orange","banana","","2016_Oct_19_1535"
7,2,2,36,"AB",10,2.041,"apple","banana","","2016_Oct_19_1535"
7,2,2,37,"XY",9,2.036,"strawberry","pear","","2016_Oct_19_1535"
7,2,2,38,"B",4,3.273,"","banana","","2016_Oct_19_1535"
7,2,2,39,"C",2,5.086,"orange","","","2016_Oct_19_1535"
7,2,2,40,"X",10,2.271,"strawberry","","","2016_Oct_19_1535"
7,2,2,41,"X",10,1.632,"","strawberry","","2016_Oct_19_1535"
7,2,2,42,"AY",10,2.552,"pear","apple","","2016_Oct_19_1535"
7,2,2,43,"C",2,2.26,"","orange","","2016_Oct_19_1535"
7,2,2,44,"AX",10,1.865,"apple","strawberry","","2016_Oct_19_1535"
7,2,2,45,"BY",4,2.739,"banana","pear","","2016_Oct_19_1535"
7,2,2,46,"CY",5,2.615,"pear","orange","","2016_Oct_19_1535"
7,2,2,47,"AY",10,2.443,"apple","pear","","2016_Oct_19_1535"
7,2,2,48,"BX",10,2.396,"strawberry","banana","","2016_Oct_19_1535"
7,2,2,49,"B",3,2.365,"banana","","","2016_Oct_19_1535"
7,2,2,50,"A",10,1.677,"","apple","","2016_Oct_19_1535"
7,2,2,51,"CY",4,6.224,"orange","pear","","2016_Oct_19_1535"
7,2,2,52,"BX",7,2.177,"banana","strawberry","","2016_Oct_19_1535"
7,2,2,53,"AB",9,1.802,"banana","apple","","2016_Oct_19_1535"
7,2,2,54,"XY",8,2.364,"pear","strawberry","","2016_Oct_19_1535"
7,2,2,55,"AC",10,2.646,"orange","apple","","2016_Oct_19_1535"
7,2,2,56,"A",10,1.445,"apple","","","2016_Oct_19_1535"
7,2,2,57,"CX",9,2.099,"strawberry","orange","","2016_Oct_19_1535"
7,2,2,58,"Y",5,2.755,"","pear","","2016_Oct_19_1535"
7,2,2,59,"CX",8,2.258,"orange","strawberry","","2016_Oct_19_1535"
7,2,2,60,"BC",3,3.273,"banana","orange","","2016_Oct_19_1535"
7,2,3,61,"BC",3,2.148,"orange","banana","","2016_Oct_19_1535"
7,2,3,62,"A",10,1.99,"","apple","","2016_Oct_19_1535"
7,2,3,63,"A",10,1.302,"apple","","","2016_Oct_19_1535"
7,2,3,64,"Y",3,2.255,"pear","","","2016_Oct_19_1535"
7,2,3,65,"BY",3,1.974,"banana","pear","","2016_Oct_19_1535"
7,2,3,66,"CX",8,3.258,"orange","strawberry","","2016_Oct_19_1535"
7,2,3,67,"AC",10,1.617,"apple","orange","","2016_Oct_19_1535"
7,2,3,68,"CX",9,1.695,"strawberry","orange","","2016_Oct_19_1535"
7,2,3,69,"AX",10,1.505,"apple","strawberry","","2016_Oct_19_1535"
7,2,3,70,"BC",3,4.447,"banana","orange","","2016_Oct_19_1535"
7,2,3,71,"Y",4,4.63,"","pear","","2016_Oct_19_1535"
7,2,3,72,"XY",8,1.739,"pear","strawberry","","2016_Oct_19_1535"
7,2,3,73,"AB",10,1.68,"banana","apple","","2016_Oct_19_1535"
7,2,3,74,"AC",10,1.552,"orange","apple","","2016_Oct_19_1535"
7,2,3,75,"B",2,1.663,"banana","","","2016_Oct_19_1535"
7,2,3,76,"XY",8,2.07,"strawberry","pear","","2016_Oct_19_1535"
7,2,3,77,"AY",10,1.617,"apple","pear","","2016_Oct_19_1535"
7,2,3,78,"CY",4,3.005,"orange","pear","","2016_Oct_19_1535"
7,2,3,79,"BX",8,1.086,"banana","strawberry","","2016_Oct_19_1535"
7,2,3,80,"AB",10,1.614,"apple","banana","","2016_Oct_19_1535"
7,2,3,81,"X",9,1.349,"","strawberry","","2016_Oct_19_1535"
7,2,3,82,"C",2,1.442,"","orange","","2016_Oct_19_1535"
7,2,3,83,"X",9,2.038,"strawberry","","","2016_Oct_19_1535"
7,2,3,84,"B",1,1.521,"","banana","","2016_Oct_19_1535"
7,2,3,85,"C",1,1.646,"orange","","","2016_Oct_19_1535"
7,2,3,86,"AX",10,1.507,"strawberry","apple","","2016_Oct_19_1535"
7,2,3,87,"BY",3,2.833,"pear","banana","","2016_Oct_19_1535"
7,2,3,88,"CY",3,2.068,"pear","orange","","2016_Oct_19_1535"
7,2,3,89,"AY",10,1.693,"pear","apple","","2016_Oct_19_1535"
7,2,3,90,"BX",9,1.883,"strawberry","banana","","2016_Oct_19_1535"
7,2,4,91,"Y",2,3.271,"","pear","","2016_Oct_19_1535"
7,2,4,92,"AC",10,2.568,"orange","apple","","2016_Oct_19_1535"
7,2,4,93,"X",9,2.224,"strawberry","","","2016_Oct_19_1535"
7,2,4,94,"BY",3,4.287,"pear","banana","","2016_Oct_19_1535"
7,2,4,95,"X",8,1.427,"","strawberry","","2016_Oct_19_1535"
7,2,4,96,"BX",8,2.333,"strawberry","banana","","2016_Oct_19_1535"
7,2,4,97,"Y",2,2.224,"pear","","","2016_Oct_19_1535"
7,2,4,98,"BC",2,1.849,"banana","orange","","2016_Oct_19_1535"
7,2,4,99,"AY",10,2.414,"pear","apple","","2016_Oct_19_1535"
7,2,4,100,"A",10,1.255,"","apple","","2016_Oct_19_1535"
7,2,4,101,"AB",10,1.302,"banana","apple","","2016_Oct_19_1535"
7,2,4,102,"AX",10,1.302,"strawberry","apple","","2016_Oct_19_1535"
7,2,4,103,"AX",10,1.474,"apple","strawberry","","2016_Oct_19_1535"
7,2,4,104,"AY",10,1.416,"apple","pear","","2016_Oct_19_1535"
7,2,4,105,"AC",10,1.302,"apple","orange","","2016_Oct_19_1535"
7,2,4,106,"XY",9,1.57,"pear","strawberry","","2016_Oct_19_1535"
7,2,4,107,"BC",2,1.708,"orange","banana","","2016_Oct_19_1535"
7,2,4,108,"CX",9,2.411,"strawberry","orange","","2016_Oct_19_1535"
7,2,4,109,"A",10,1.304,"apple","","","2016_Oct_19_1535"
7,2,4,110,"AB",10,0.864,"apple","banana","","2016_Oct_19_1535"
7,2,4,111,"CX",9,1.429,"orange","strawberry","","2016_Oct_19_1535"
7,2,4,112,"C",1,1.833,"orange","","","2016_Oct_19_1535"
7,2,4,113,"B",2,1.146,"banana","","","2016_Oct_19_1535"
7,2,4,114,"BX",8,1.818,"banana","strawberry","","2016_Oct_19_1535"
7,2,4,115,"B",2,1.601,"","banana","","2016_Oct_19_1535"
7,2,4,116,"BY",3,2.058,"banana","pear","","2016_Oct_19_1535"
7,2,4,117,"C",2,1.618,"","orange","","2016_Oct_19_1535"
7,2,4,118,"XY",8,4.854,"strawberry","pear","","2016_Oct_19_1535"
7,2,4,119,"CY",2,4.539,"pear","orange","","2016_Oct_19_1535"
7,2,4,120,"CY",2,1.083,"orange","pear","","2016_Oct_19_1535"
7,2,5,121,"CX",8,1.318,"strawberry","orange","","2016_Oct_19_1535"
7,2,5,122,"CY",2,1.239,"pear","orange","","2016_Oct_19_1535"
7,2,5,123,"BX",8,1.303,"strawberry","banana","","2016_Oct_19_1535"
7,2,5,124,"BY",2,1.349,"pear","banana","","2016_Oct_19_1535"
7,2,5,125,"BC",2,1.086,"orange","banana","","2016_Oct_19_1535"
7,2,5,126,"AC",10,1.101,"apple","orange","","2016_Oct_19_1535"
7,2,5,127,"AY",10,0.96,"apple","pear","","2016_Oct_19_1535"
7,2,5,128,"B",2,1.867,"","banana","","2016_Oct_19_1535"
7,2,5,129,"C",2,1.569,"","orange","","2016_Oct_19_1535"
7,2,5,130,"CX",8,1.505,"orange","strawberry","","2016_Oct_19_1535"
7,2,5,131,"X",9,1.929,"strawberry","","","2016_Oct_19_1535"
7,2,5,132,"XY",8,1.724,"pear","strawberry","","2016_Oct_19_1535"
7,2,5,133,"AB",10,1.161,"apple","banana","","2016_Oct_19_1535"
7,2,5,134,"X",9,1.68,"","strawberry","","2016_Oct_19_1535"
7,2,5,135,"B",2,2.224,"banana","","","2016_Oct_19_1535"
7,2,5,136,"AB",10,1.052,"banana","apple","","2016_Oct_19_1535"
7,2,5,137,"XY",9,1.179,"strawberry","pear","","2016_Oct_19_1535"
7,2,5,138,"C",2,1.648,"orange","","","2016_Oct_19_1535"
7,2,5,139,"BC",3,1.27,"banana","orange","","2016_Oct_19_1535"
7,2,5,140,"Y",2,2.099,"","pear","","2016_Oct_19_1535"
7,2,5,141,"BY",2,0.615,"banana","pear","","2016_Oct_19_1535"
7,2,5,142,"AX",10,1.224,"strawberry","apple","","2016_Oct_19_1535"
7,2,5,143,"AC",10,0.958,"orange","apple","","2016_Oct_19_1535"
7,2,5,144,"AY",10,1.177,"pear","apple","","2016_Oct_19_1535"
7,2,5,145,"Y",3,2.067,"pear","","","2016_Oct_19_1535"
7,2,5,146,"AX",10,1.489,"apple","strawberry","","2016_Oct_19_1535"
7,2,5,147,"A",10,0.88,"apple","","","2016_Oct_19_1535"
7,2,5,148,"BX",9,1.583,"banana","strawberry","","2016_Oct_19_1535"
7,2,5,149,"CY",2,1.661,"orange","pear","","2016_Oct_19_1535"
7,2,5,150,"A",10,1.115,"","apple","","2016_Oct_19_1535"
7,2,6,151,"AY",10,1.177,"apple","pear","","2016_Oct_19_1535"
7,2,6,152,"XY",9,2.554,"strawberry","pear","","2016_Oct_19_1535"
7,2,6,153,"AC",10,1.052,"orange","apple","","2016_Oct_19_1535"
7,2,6,154,"AX",10,1.052,"apple","strawberry","","2016_Oct_19_1535"
7,2,6,155,"BC",3,1.677,"banana","orange","","2016_Oct_19_1535"
7,2,6,156,"AC",10,1.13,"apple","orange","","2016_Oct_19_1535"
7,2,6,157,"X",9,1.773,"","strawberry","","2016_Oct_19_1535"
7,2,6,158,"AX",10,0.958,"strawberry","apple","","2016_Oct_19_1535"
7,2,6,159,"A",10,0.833,"apple","","","2016_Oct_19_1535"
7,2,6,160,"BY",3,1.286,"pear","banana","","2016_Oct_19_1535"
7,2,6,161,"XY",9,2.411,"pear","strawberry","","2016_Oct_19_1535"
7,2,6,162,"AY",10,1.13,"pear","apple","","2016_Oct_19_1535"
7,2,6,163,"CY",4,2.052,"pear","orange","","2016_Oct_19_1535"
7,2,6,164,"BC",3,1.115,"orange","banana","","2016_Oct_19_1535"
7,2,6,165,"CX",8,1.552,"orange","strawberry","","2016_Oct_19_1535"
7,2,6,166,"CY",3,1.492,"orange","pear","","2016_Oct_19_1535"
7,2,6,167,"BY",3,1.521,"banana","pear","","2016_Oct_19_1535"
7,2,6,168,"BX",8,1.411,"strawberry","banana","","2016_Oct_19_1535"
7,2,6,169,"C",2,1.849,"orange","","","2016_Oct_19_1535"
7,2,6,170,"AB",10,1.974,"apple","banana","","2016_Oct_19_1535"
7,2,6,171,"Y",2,2.068,"pear","","","2016_Oct_19_1535"
7,2,6,172,"CX",8,2.662,"strawberry","orange","","2016_Oct_19_1535"
7,2,6,173,"C",2,1.505,"","orange","","2016_Oct_19_1535"
7,2,6,174,"A",10,1.505,"","apple","","2016_Oct_19_1535"
7,2,6,175,"AB",10,1.179,"banana","apple","","2016_Oct_19_1535"
7,2,6,176,"Y",3,1.585,"","pear","","2016_Oct_19_1535"
7,2,6,177,"X",8,1.226,"strawberry","","","2016_Oct_19_1535"
7,2,6,178,"B",2,3.208,"","banana","","2016_Oct_19_1535"
7,2,6,179,"BX",9,3.13,"banana","strawberry","","2016_Oct_19_1535"
7,2,6,180,"B",3,1.43,"banana","","","2016_Oct_19_1535"
8,2,1,1,"A",8,16.379,"pear","","","2016_Oct_19_1542"
8,2,1,2,"Y",0,3.865,"orange","","","2016_Oct_19_1542"
8,2,1,3,"A",8,4.729,"","pear","","2016_Oct_19_1542"
8,2,1,4,"XY",0,3.383,"banana","orange","","2016_Oct_19_1542"
8,2,1,5,"CY",0,2.302,"apple","orange","","2016_Oct_19_1542"
8,2,1,6,"AB",10,2.333,"pear","strawberry","","2016_Oct_19_1542"
8,2,1,7,"C",0,7.024,"apple","","","2016_Oct_19_1542"
8,2,1,8,"BX",7,4.133,"strawberry","banana","","2016_Oct_19_1542"
8,2,1,9,"BY",7,2.21,"strawberry","orange","","2016_Oct_19_1542"
8,2,1,10,"AX",7,2.318,"banana","pear","","2016_Oct_19_1542"
8,2,1,11,"BC",7,2.352,"apple","strawberry","","2016_Oct_19_1542"
8,2,1,12,"AB",10,2.117,"strawberry","pear","","2016_Oct_19_1542"
8,2,1,13,"B",7,4.32,"","strawberry","","2016_Oct_19_1542"
8,2,1,14,"AX",7,2.276,"pear","banana","","2016_Oct_19_1542"
8,2,1,15,"Y",0,2.273,"","orange","","2016_Oct_19_1542"
8,2,1,16,"BY",7,2.257,"orange","strawberry","","2016_Oct_19_1542"
8,2,1,17,"XY",0,2.582,"orange","banana","","2016_Oct_19_1542"
8,2,1,18,"CX",0,1.82,"apple","banana","","2016_Oct_19_1542"
8,2,1,19,"CY",0,1.427,"orange","apple","","2016_Oct_19_1542"
8,2,1,20,"C",0,1.554,"","apple","","2016_Oct_19_1542"
8,2,1,21,"X",0,1.257,"banana","","","2016_Oct_19_1542"
8,2,1,22,"AC",7,1.991,"apple","pear","","2016_Oct_19_1542"
8,2,1,23,"AY",7,1.32,"orange","pear","","2016_Oct_19_1542"
8,2,1,24,"AC",7,2.036,"pear","apple","","2016_Oct_19_1542"
8,2,1,25,"CX",0,3.302,"banana","apple","","2016_Oct_19_1542"
8,2,1,26,"B",7,2.558,"strawberry","","","2016_Oct_19_1542"
8,2,1,27,"BC",7,2.489,"strawberry","apple","","2016_Oct_19_1542"
8,2,1,28,"BX",7,1.973,"banana","strawberry","","2016_Oct_19_1542"
8,2,1,29,"AY",7,0.989,"pear","orange","","2016_Oct_19_1542"
8,2,1,30,"X",0,1.554,"","banana","","2016_Oct_19_1542"
8,2,2,31,"Y",0,0.989,"orange","","","2016_Oct_19_1542"
8,2,2,32,"CY",0,0.944,"apple","orange","","2016_Oct_19_1542"
8,2,2,33,"AC",7,1.901,"apple","pear","","2016_Oct_19_1542"
8,2,2,34,"CX",0,2.025,"apple","banana","","2016_Oct_19_1542"
8,2,2,35,"AX",8,1.724,"banana","pear","","2016_Oct_19_1542"
8,2,2,36,"AX",8,1.911,"pear","banana","","2016_Oct_19_1542"
8,2,2,37,"XY",0,3.474,"orange","banana","","2016_Oct_19_1542"
8,2,2,38,"XY",0,4.099,"banana","orange","","2016_Oct_19_1542"
8,2,2,39,"B",7,2.239,"strawberry","","","2016_Oct_19_1542"
8,2,2,40,"BC",6,2.32,"strawberry","apple","","2016_Oct_19_1542"
8,2,2,41,"C",0,2.037,"","apple","","2016_Oct_19_1542"
8,2,2,42,"CX",0,0.802,"banana","apple","","2016_Oct_19_1542"
8,2,2,43,"X",0,0.739,"","banana","","2016_Oct_19_1542"
8,2,2,44,"B",8,1.989,"","strawberry","","2016_Oct_19_1542"
8,2,2,45,"X",0,2.349,"banana","","","2016_Oct_19_1542"
8,2,2,46,"AC",7,2.085,"pear","apple","","2016_Oct_19_1542"
8,2,2,47,"AY",6,2.148,"pear","orange","","2016_Oct_19_1542"
8,2,2,48,"BY",7,1.679,"orange","strawberry","","2016_Oct_19_1542"
8,2,2,49,"BX",7,1.208,"strawberry","banana","","2016_Oct_19_1542"
8,2,2,50,"BY",7,1.224,"strawberry","orange","","2016_Oct_19_1542"
8,2,2,51,"AY",7,1.302,"orange","pear","","2016_Oct_19_1542"
8,2,2,52,"C",0,1.866,"apple","","","2016_Oct_19_1542"
8,2,2,53,"AB",10,2.239,"pear","strawberry","","2016_Oct_19_1542"
8,2,2,54,"A",7,1.631,"","pear","","2016_Oct_19_1542"
8,2,2,55,"BC",7,2.745,"apple","strawberry","","2016_Oct_19_1542"
8,2,2,56,"A",8,1.896,"pear","","","2016_Oct_19_1542"
8,2,2,57,"BX",8,1.477,"banana","strawberry","","2016_Oct_19_1542"
8,2,2,58,"AB",10,1.475,"strawberry","pear","","2016_Oct_19_1542"
8,2,2,59,"Y",0,1.411,"","orange","","2016_Oct_19_1542"
8,2,2,60,"CY",0,0.989,"orange","apple","","2016_Oct_19_1542"
8,2,3,61,"BY",7,1.927,"orange","strawberry","","2016_Oct_19_1542"
8,2,3,62,"A",7,1.239,"","pear","","2016_Oct_19_1542"
8,2,3,63,"CY",0,2.177,"orange","apple","","2016_Oct_19_1542"
8,2,3,64,"XY",0,0.742,"orange","banana","","2016_Oct_19_1542"
8,2,3,65,"X",0,0.679,"","banana","","2016_Oct_19_1542"
8,2,3,66,"CX",0,1.177,"banana","apple","","2016_Oct_19_1542"
8,2,3,67,"A",8,1.411,"pear","","","2016_Oct_19_1542"
8,2,3,68,"AB",10,1.507,"strawberry","pear","","2016_Oct_19_1542"
8,2,3,69,"AB",10,0.927,"pear","strawberry","","2016_Oct_19_1542"
8,2,3,70,"AC",7,1.413,"pear","apple","","2016_Oct_19_1542"
8,2,3,71,"C",0,2.429,"apple","","","2016_Oct_19_1542"
8,2,3,72,"CX",0,0.974,"apple","banana","","2016_Oct_19_1542"
8,2,3,73,"Y",0,0.739,"orange","","","2016_Oct_19_1542"
8,2,3,74,"X",0,0.569,"banana","","","2016_Oct_19_1542"
8,2,3,75,"C",0,0.84,"","apple","","2016_Oct_19_1542"
8,2,3,76,"XY",0,1.132,"banana","orange","","2016_Oct_19_1542"
8,2,3,77,"CY",0,0.944,"apple","orange","","2016_Oct_19_1542"
8,2,3,78,"B",7,1.646,"strawberry","","","2016_Oct_19_1542"
8,2,3,79,"AX",7,1.349,"banana","pear","","2016_Oct_19_1542"
8,2,3,80,"AC",7,0.849,"apple","pear","","2016_Oct_19_1542"
8,2,3,81,"AY",7,1.177,"pear","orange","","2016_Oct_19_1542"
8,2,3,82,"BX",7,1.052,"banana","strawberry","","2016_Oct_19_1542"
8,2,3,83,"BC",7,0.82,"apple","strawberry","","2016_Oct_19_1542"
8,2,3,84,"BY",7,1.224,"strawberry","orange","","2016_Oct_19_1542"
8,2,3,85,"AX",0,1.505,"pear","banana","","2016_Oct_19_1542"
8,2,3,86,"AY",8,4.005,"orange","pear","","2016_Oct_19_1542"
8,2,3,87,"Y",0,1.429,"","orange","","2016_Oct_19_1542"
8,2,3,88,"BC",8,1.537,"strawberry","apple","","2016_Oct_19_1542"
8,2,3,89,"BX",8,1.13,"strawberry","banana","","2016_Oct_19_1542"
8,2,3,90,"B",6,2.177,"","strawberry","","2016_Oct_19_1542"
8,2,4,91,"XY",0,2.57,"orange","banana","","2016_Oct_19_1542"
8,2,4,92,"BC",7,1.538,"apple","strawberry","","2016_Oct_19_1542"
8,2,4,93,"Y",0,1.458,"","orange","","2016_Oct_19_1542"
8,2,4,94,"BC",7,1.445,"strawberry","apple","","2016_Oct_19_1542"
8,2,4,95,"AC",7,0.911,"pear","apple","","2016_Oct_19_1542"
8,2,4,96,"BX",7,1.02,"strawberry","banana","","2016_Oct_19_1542"
8,2,4,97,"C",0,1.241,"apple","","","2016_Oct_19_1542"
8,2,4,98,"CY",0,1.539,"orange","apple","","2016_Oct_19_1542"
8,2,4,99,"Y",0,0.989,"orange","","","2016_Oct_19_1542"
8,2,4,100,"AX",7,1.693,"banana","pear","","2016_Oct_19_1542"
8,2,4,101,"AB",10,1.773,"pear","strawberry","","2016_Oct_19_1542"
8,2,4,102,"AB",10,0.833,"strawberry","pear","","2016_Oct_19_1542"
8,2,4,103,"A",7,1.614,"pear","","","2016_Oct_19_1542"
8,2,4,104,"A",7,1.099,"","pear","","2016_Oct_19_1542"
8,2,4,105,"AY",6,1.489,"orange","pear","","2016_Oct_19_1542"
8,2,4,106,"AC",7,1.288,"apple","pear","","2016_Oct_19_1542"
8,2,4,107,"AX",7,1.224,"pear","banana","","2016_Oct_19_1542"
8,2,4,108,"B",8,1.302,"","strawberry","","2016_Oct_19_1542"
8,2,4,109,"CX",7,1.148,"apple","banana","","2016_Oct_19_1542"
8,2,4,110,"CY",0,4.224,"apple","orange","","2016_Oct_19_1542"
8,2,4,111,"BY",9,1.614,"strawberry","orange","","2016_Oct_19_1542"
8,2,4,112,"BX",8,1.786,"banana","strawberry","","2016_Oct_19_1542"
8,2,4,113,"BY",8,1.286,"orange","strawberry","","2016_Oct_19_1542"
8,2,4,114,"X",0,1.302,"","banana","","2016_Oct_19_1542"
8,2,4,115,"B",8,1.367,"strawberry","","","2016_Oct_19_1542"
8,2,4,116,"X",0,1.476,"banana","","","2016_Oct_19_1542"
8,2,4,117,"AY",8,1.192,"pear","orange","","2016_Oct_19_1542"
8,2,4,118,"CX",0,1.787,"banana","apple","","2016_Oct_19_1542"
8,2,4,119,"XY",0,1.052,"banana","orange","","2016_Oct_19_1542"
8,2,4,120,"C",0,0.833,"","apple","","2016_Oct_19_1542"
8,2,5,121,"A",10,1.492,"pear","","","2016_Oct_19_1542"
8,2,5,122,"AY",9,0.71,"pear","orange","","2016_Oct_19_1542"
8,2,5,123,"AB",10,1.364,"pear","strawberry","","2016_Oct_19_1542"
8,2,5,124,"Y",0,2.181,"","orange","","2016_Oct_19_1542"
8,2,5,125,"AC",8,2.116,"pear","apple","","2016_Oct_19_1542"
8,2,5,126,"C",0,1.49,"apple","","","2016_Oct_19_1542"
8,2,5,127,"CX",0,0.802,"apple","banana","","2016_Oct_19_1542"
8,2,5,128,"Y",0,0.677,"orange","","","2016_Oct_19_1542"
8,2,5,129,"BX",7,1.271,"strawberry","banana","","2016_Oct_19_1542"
8,2,5,130,"AB",10,1.117,"strawberry","pear","","2016_Oct_19_1542"
8,2,5,131,"BX",7,1.255,"banana","strawberry","","2016_Oct_19_1542"
8,2,5,132,"AY",7,0.961,"orange","pear","","2016_Oct_19_1542"
8,2,5,133,"X",0,1.49,"banana","","","2016_Oct_19_1542"
8,2,5,134,"XY",0,0.646,"banana","orange","","2016_Oct_19_1542"
8,2,5,135,"BC",7,1.099,"strawberry","apple","","2016_Oct_19_1542"
8,2,5,136,"AC",7,0.976,"apple","pear","","2016_Oct_19_1542"
8,2,5,137,"B",10,1.758,"strawberry","","","2016_Oct_19_1542"
8,2,5,138,"BY",7,1.052,"strawberry","orange","","2016_Oct_19_1542"
8,2,5,139,"CX",0,2.036,"banana","apple","","2016_Oct_19_1542"
8,2,5,140,"BC",7,1.646,"apple","strawberry","","2016_Oct_19_1542"
8,2,5,141,"BY",7,0.631,"orange","strawberry","","2016_Oct_19_1542"
8,2,5,142,"CY",0,1.802,"apple","orange","","2016_Oct_19_1542"
8,2,5,143,"X",0,0.788,"","banana","","2016_Oct_19_1542"
8,2,5,144,"AX",7,1.677,"banana","pear","","2016_Oct_19_1542"
8,2,5,145,"A",7,0.864,"","pear","","2016_Oct_19_1542"
8,2,5,146,"XY",0,2.974,"orange","banana","","2016_Oct_19_1542"
8,2,5,147,"B",10,1.146,"","strawberry","","2016_Oct_19_1542"
8,2,5,148,"C",0,1.245,"","apple","","2016_Oct_19_1542"
8,2,5,149,"AX",8,2.005,"pear","banana","","2016_Oct_19_1542"
8,2,5,150,"CY",0,1.599,"orange","apple","","2016_Oct_19_1542"
8,2,6,151,"BX",8,1.648,"banana","strawberry","","2016_Oct_19_1542"
8,2,6,152,"AY",8,2.007,"pear","orange","","2016_Oct_19_1542"
8,2,6,153,"AY",7,1.036,"orange","pear","","2016_Oct_19_1542"
8,2,6,154,"A",7,1.177,"","pear","","2016_Oct_19_1542"
8,2,6,155,"AB",10,1.927,"pear","strawberry","","2016_Oct_19_1542"
8,2,6,156,"X",0,1.49,"banana","","","2016_Oct_19_1542"
8,2,6,157,"AX",7,1.318,"pear","banana","","2016_Oct_19_1542"
8,2,6,158,"AC",7,0.911,"apple","pear","","2016_Oct_19_1542"
8,2,6,159,"C",0,1.568,"apple","","","2016_Oct_19_1542"
8,2,6,160,"AB",10,2.13,"strawberry","pear","","2016_Oct_19_1542"
8,2,6,161,"BC",7,1.588,"strawberry","apple","","2016_Oct_19_1542"
8,2,6,162,"Y",0,2.239,"orange","","","2016_Oct_19_1542"
8,2,6,163,"Y",0,0.552,"","orange","","2016_Oct_19_1542"
8,2,6,164,"AX",7,1.445,"banana","pear","","2016_Oct_19_1542"
8,2,6,165,"B",10,1.239,"","strawberry","","2016_Oct_19_1542"
8,2,6,166,"BY",6,1.099,"strawberry","orange","","2016_Oct_19_1542"
8,2,6,167,"CX",0,2.556,"banana","apple","","2016_Oct_19_1542"
8,2,6,168,"CY",0,0.726,"apple","orange","","2016_Oct_19_1542"
8,2,6,169,"BX",5,2.568,"strawberry","banana","","2016_Oct_19_1542"
8,2,6,170,"C",0,1.289,"","apple","","2016_Oct_19_1542"
8,2,6,171,"X",0,1.739,"","banana","","2016_Oct_19_1542"
8,2,6,172,"BC",5,2.052,"apple","strawberry","","2016_Oct_19_1542"
8,2,6,173,"A",10,1.369,"pear","","","2016_Oct_19_1542"
8,2,6,174,"B",10,1.489,"strawberry","","","2016_Oct_19_1542"
8,2,6,175,"AC",9,1.224,"pear","apple","","2016_Oct_19_1542"
8,2,6,176,"CX",5,1.583,"apple","banana","","2016_Oct_19_1542"
8,2,6,177,"XY",0,2.82,"orange","banana","","2016_Oct_19_1542"
8,2,6,178,"XY",0,1.395,"banana","orange","","2016_Oct_19_1542"
8,2,6,179,"BY",8,1.364,"orange","strawberry","","2016_Oct_19_1542"
8,2,6,180,"CY",0,2.005,"orange","apple","","2016_Oct_19_1542"
9,2,1,1,"C",0,4.539,"","banana","","2016_Oct_19_1620"
9,2,1,2,"B",10,1.989,"","strawberry","","2016_Oct_19_1620"
9,2,1,3,"Y",0,2.911,"pear","","","2016_Oct_19_1620"
9,2,1,4,"A",10,2.005,"","apple","","2016_Oct_19_1620"
9,2,1,5,"BY",8,3.18,"strawberry","pear","","2016_Oct_19_1620"
9,2,1,6,"CY",0,2.882,"pear","banana","","2016_Oct_19_1620"
9,2,1,7,"BY",8,4.333,"pear","strawberry","","2016_Oct_19_1620"
9,2,1,8,"XY",0,2.661,"orange","pear","","2016_Oct_19_1620"
9,2,1,9,"Y",0,1.208,"","pear","","2016_Oct_19_1620"
9,2,1,10,"XY",0,1.911,"pear","orange","","2016_Oct_19_1620"
9,2,1,11,"AX",8,2.802,"orange","apple","","2016_Oct_19_1620"
9,2,1,12,"B",10,1.177,"strawberry","","","2016_Oct_19_1620"
9,2,1,13,"AC",9,1.414,"banana","apple","","2016_Oct_19_1620"
9,2,1,14,"X",0,1.615,"orange","","","2016_Oct_19_1620"
9,2,1,15,"X",0,3.427,"","orange","","2016_Oct_19_1620"
9,2,1,16,"BX",10,1.38,"orange","strawberry","","2016_Oct_19_1620"
9,2,1,17,"BX",9,2.068,"strawberry","orange","","2016_Oct_19_1620"
9,2,1,18,"CX",0,2.13,"banana","orange","","2016_Oct_19_1620"
9,2,1,19,"AC",9,4.958,"apple","banana","","2016_Oct_19_1620"
9,2,1,20,"C",0,2.099,"banana","","","2016_Oct_19_1620"
9,2,1,21,"AY",9,1.865,"apple","pear","","2016_Oct_19_1620"
9,2,1,22,"AY",9,0.679,"pear","apple","","2016_Oct_19_1620"
9,2,1,23,"AB",10,1.162,"strawberry","apple","","2016_Oct_19_1620"
9,2,1,24,"BC",9,1.13,"strawberry","banana","","2016_Oct_19_1620"
9,2,1,25,"A",10,0.864,"apple","","","2016_Oct_19_1620"
9,2,1,26,"AX",9,1.646,"apple","orange","","2016_Oct_19_1620"
9,2,1,27,"CX",0,1.771,"orange","banana","","2016_Oct_19_1620"
9,2,1,28,"AB",10,2.021,"apple","strawberry","","2016_Oct_19_1620"
9,2,1,29,"BC",9,1.742,"banana","strawberry","","2016_Oct_19_1620"
9,2,1,30,"CY",0,2.567,"banana","pear","","2016_Oct_19_1620"
9,2,2,31,"CX",0,2.039,"orange","banana","","2016_Oct_19_1620"
9,2,2,32,"X",0,0.614,"orange","","","2016_Oct_19_1620"
9,2,2,33,"AC",9,3.585,"banana","apple","","2016_Oct_19_1620"
9,2,2,34,"BC",9,0.786,"banana","strawberry","","2016_Oct_19_1620"
9,2,2,35,"A",10,1.099,"","apple","","2016_Oct_19_1620"
9,2,2,36,"BY",9,0.864,"strawberry","pear","","2016_Oct_19_1620"
9,2,2,37,"BX",9,2.115,"orange","strawberry","","2016_Oct_19_1620"
9,2,2,38,"B",10,2.302,"","strawberry","","2016_Oct_19_1620"
9,2,2,39,"CY",0,1.677,"pear","banana","","2016_Oct_19_1620"
9,2,2,40,"B",10,1.661,"strawberry","","","2016_Oct_19_1620"
9,2,2,41,"AB",10,0.786,"strawberry","apple","","2016_Oct_19_1620"
9,2,2,42,"CY",0,1.489,"banana","pear","","2016_Oct_19_1620"
9,2,2,43,"BY",9,5.338,"pear","strawberry","","2016_Oct_19_1620"
9,2,2,44,"CX",0,1.88,"banana","orange","","2016_Oct_19_1620"
9,2,2,45,"X",0,0.742,"","orange","","2016_Oct_19_1620"
9,2,2,46,"BX",9,1.568,"strawberry","orange","","2016_Oct_19_1620"
9,2,2,47,"AY",9,1.489,"apple","pear","","2016_Oct_19_1620"
9,2,2,48,"AC",9,1.114,"apple","banana","","2016_Oct_19_1620"
9,2,2,49,"Y",0,1.646,"","pear","","2016_Oct_19_1620"
9,2,2,50,"A",10,1.132,"apple","","","2016_Oct_19_1620"
9,2,2,51,"BC",9,2.943,"strawberry","banana","","2016_Oct_19_1620"
9,2,2,52,"XY",0,1.396,"orange","pear","","2016_Oct_19_1620"
9,2,2,53,"AB",10,1.536,"apple","strawberry","","2016_Oct_19_1620"
9,2,2,54,"AY",9,1.07,"pear","apple","","2016_Oct_19_1620"
9,2,2,55,"C",0,1.318,"banana","","","2016_Oct_19_1620"
9,2,2,56,"C",0,1.335,"","banana","","2016_Oct_19_1620"
9,2,2,57,"Y",0,1.116,"pear","","","2016_Oct_19_1620"
9,2,2,58,"XY",0,0.989,"pear","orange","","2016_Oct_19_1620"
9,2,2,59,"AX",9,1.396,"apple","orange","","2016_Oct_19_1620"
9,2,2,60,"AX",9,0.708,"orange","apple","","2016_Oct_19_1620"
9,2,3,61,"C",0,1.209,"","banana","","2016_Oct_19_1620"
9,2,3,62,"BX",9,1.474,"orange","strawberry","","2016_Oct_19_1620"
9,2,3,63,"XY",0,1.615,"orange","pear","","2016_Oct_19_1620"
9,2,3,64,"AB",10,1.63,"apple","strawberry","","2016_Oct_19_1620"
9,2,3,65,"A",10,1.257,"","apple","","2016_Oct_19_1620"
9,2,3,66,"X",0,2.413,"orange","","","2016_Oct_19_1620"
9,2,3,67,"B",10,1.63,"","strawberry","","2016_Oct_19_1620"
9,2,3,68,"AC",9,1.021,"apple","banana","","2016_Oct_19_1620"
9,2,3,69,"AY",9,0.849,"pear","apple","","2016_Oct_19_1620"
9,2,3,70,"A",10,1.067,"apple","","","2016_Oct_19_1620"
9,2,3,71,"CX",0,1.255,"orange","banana","","2016_Oct_19_1620"
9,2,3,72,"BX",9,1.411,"strawberry","orange","","2016_Oct_19_1620"
9,2,3,73,"BC",9,0.88,"strawberry","banana","","2016_Oct_19_1620"
9,2,3,74,"B",10,1.755,"strawberry","","","2016_Oct_19_1620"
9,2,3,75,"XY",0,1.833,"pear","orange","","2016_Oct_19_1620"
9,2,3,76,"BY",9,1.396,"strawberry","pear","","2016_Oct_19_1620"
9,2,3,77,"BC",9,1.068,"banana","strawberry","","2016_Oct_19_1620"
9,2,3,78,"CX",0,1.396,"banana","orange","","2016_Oct_19_1620"
9,2,3,79,"CY",0,0.614,"banana","pear","","2016_Oct_19_1620"
9,2,3,80,"AC",9,2.211,"banana","apple","","2016_Oct_19_1620"
9,2,3,81,"Y",0,1.13,"","pear","","2016_Oct_19_1620"
9,2,3,82,"AY",9,1.364,"apple","pear","","2016_Oct_19_1620"
9,2,3,83,"CY",0,1.239,"pear","banana","","2016_Oct_19_1620"
9,2,3,84,"C",0,0.724,"banana","","","2016_Oct_19_1620"
9,2,3,85,"AB",10,1.38,"strawberry","apple","","2016_Oct_19_1620"
9,2,3,86,"AX",9,1.117,"orange","apple","","2016_Oct_19_1620"
9,2,3,87,"Y",0,1.193,"pear","","","2016_Oct_19_1620"
9,2,3,88,"AX",9,1.348,"apple","orange","","2016_Oct_19_1620"
9,2,3,89,"X",0,1.117,"","orange","","2016_Oct_19_1620"
9,2,3,90,"BY",9,4.068,"pear","strawberry","","2016_Oct_19_1620"
9,2,4,91,"X",0,1.536,"","orange","","2016_Oct_19_1620"
9,2,4,92,"B",9,1.271,"","strawberry","","2016_Oct_19_1620"
9,2,4,93,"BC",9,1.099,"strawberry","banana","","2016_Oct_19_1620"
9,2,4,94,"AC",9,0.849,"banana","apple","","2016_Oct_19_1620"
9,2,4,95,"Y",0,1.102,"pear","","","2016_Oct_19_1620"
9,2,4,96,"CY",0,0.755,"pear","banana","","2016_Oct_19_1620"
9,2,4,97,"CX",0,0.693,"orange","banana","","2016_Oct_19_1620"
9,2,4,98,"XY",0,0.617,"orange","pear","","2016_Oct_19_1620"
9,2,4,99,"AX",9,1.146,"apple","orange","","2016_Oct_19_1620"
9,2,4,100,"A",10,1.099,"apple","","","2016_Oct_19_1620"
9,2,4,101,"C",0,1.573,"","banana","","2016_Oct_19_1620"
9,2,4,102,"AY",9,1.677,"pear","apple","","2016_Oct_19_1620"
9,2,4,103,"BC",9,1.849,"banana","strawberry","","2016_Oct_19_1620"
9,2,4,104,"AX",9,0.849,"orange","apple","","2016_Oct_19_1620"
9,2,4,105,"AB",10,0.867,"strawberry","apple","","2016_Oct_19_1620"
9,2,4,106,"C",0,1.445,"banana","","","2016_Oct_19_1620"
9,2,4,107,"X",0,1.239,"orange","","","2016_Oct_19_1620"
9,2,4,108,"BY",9,1.521,"pear","strawberry","","2016_Oct_19_1620"
9,2,4,109,"AB",10,1.132,"apple","strawberry","","2016_Oct_19_1620"
9,2,4,110,"CY",0,2.099,"banana","pear","","2016_Oct_19_1620"
9,2,4,111,"Y",0,2.208,"","pear","","2016_Oct_19_1620"
9,2,4,112,"BX",9,1.396,"strawberry","orange","","2016_Oct_19_1620"
9,2,4,113,"A",10,1.224,"","apple","","2016_Oct_19_1620"
9,2,4,114,"BY",9,1.615,"strawberry","pear","","2016_Oct_19_1620"
9,2,4,115,"AC",9,0.804,"apple","banana","","2016_Oct_19_1620"
9,2,4,116,"BX",9,0.646,"orange","strawberry","","2016_Oct_19_1620"
9,2,4,117,"AY",9,0.632,"apple","pear","","2016_Oct_19_1620"
9,2,4,118,"XY",0,1.63,"pear","orange","","2016_Oct_19_1620"
9,2,4,119,"CX",0,1.349,"banana","orange","","2016_Oct_19_1620"
9,2,4,120,"B",10,1.849,"strawberry","","","2016_Oct_19_1620"
9,2,5,121,"AX",9,4.286,"orange","apple","","2016_Oct_19_1620"
9,2,5,122,"Y",0,1.445,"","pear","","2016_Oct_19_1620"
9,2,5,123,"AY",9,2.052,"pear","apple","","2016_Oct_19_1620"
9,2,5,124,"X",0,1.271,"orange","","","2016_Oct_19_1620"
9,2,5,125,"A",10,1.161,"","apple","","2016_Oct_19_1620"
9,2,5,126,"AX",9,1.864,"apple","orange","","2016_Oct_19_1620"
9,2,5,127,"AY",9,0.786,"apple","pear","","2016_Oct_19_1620"
9,2,5,128,"BY",9,0.849,"strawberry","pear","","2016_Oct_19_1620"
9,2,5,129,"CX",0,1.163,"banana","orange","","2016_Oct_19_1620"
9,2,5,130,"AC",9,1.177,"banana","apple","","2016_Oct_19_1620"
9,2,5,131,"Y",0,1.115,"pear","","","2016_Oct_19_1620"
9,2,5,132,"B",9,1.177,"","strawberry","","2016_Oct_19_1620"
9,2,5,133,"C",0,1.38,"","banana","","2016_Oct_19_1620"
9,2,5,134,"A",10,1.271,"apple","","","2016_Oct_19_1620"
9,2,5,135,"AB",10,0.708,"strawberry","apple","","2016_Oct_19_1620"
9,2,5,136,"XY",0,1.132,"orange","pear","","2016_Oct_19_1620"
9,2,5,137,"X",0,1.052,"","orange","","2016_Oct_19_1620"
9,2,5,138,"CY",0,0.802,"banana","pear","","2016_Oct_19_1620"
9,2,5,139,"XY",0,0.599,"pear","orange","","2016_Oct_19_1620"
9,2,5,140,"CX",0,0.536,"orange","banana","","2016_Oct_19_1620"
9,2,5,141,"BX",9,1.335,"strawberry","orange","","2016_Oct_19_1620"
9,2,5,142,"BC",9,0.536,"strawberry","banana","","2016_Oct_19_1620"
9,2,5,143,"AB",10,1.083,"apple","strawberry","","2016_Oct_19_1620"
9,2,5,144,"BX",9,1.38,"orange","strawberry","","2016_Oct_19_1620"
9,2,5,145,"BC",9,0.974,"banana","strawberry","","2016_Oct_19_1620"
9,2,5,146,"BY",9,0.63,"pear","strawberry","","2016_Oct_19_1620"
9,2,5,147,"CY",0,1.724,"pear","banana","","2016_Oct_19_1620"
9,2,5,148,"B",10,1.13,"strawberry","","","2016_Oct_19_1620"
9,2,5,149,"AC",9,1.255,"apple","banana","","2016_Oct_19_1620"
9,2,5,150,"C",0,1.07,"banana","","","2016_Oct_19_1620"
9,2,6,151,"AB",10,1.224,"apple","strawberry","","2016_Oct_19_1620"
9,2,6,152,"CY",0,1.224,"pear","banana","","2016_Oct_19_1620"
9,2,6,153,"AC",9,1.63,"apple","banana","","2016_Oct_19_1620"
9,2,6,154,"XY",0,1.304,"orange","pear","","2016_Oct_19_1620"
9,2,6,155,"AX",9,1.208,"orange","apple","","2016_Oct_19_1620"
9,2,6,156,"X",0,1.63,"","orange","","2016_Oct_19_1620"
9,2,6,157,"Y",0,0.927,"pear","","","2016_Oct_19_1620"
9,2,6,158,"B",10,1.148,"","strawberry","","2016_Oct_19_1620"
9,2,6,159,"BC",9,1.224,"strawberry","banana","","2016_Oct_19_1620"
9,2,6,160,"AY",9,0.757,"pear","apple","","2016_Oct_19_1620"
9,2,6,161,"C",0,1.226,"","banana","","2016_Oct_19_1620"
9,2,6,162,"XY",0,0.708,"pear","orange","","2016_Oct_19_1620"
9,2,6,163,"A",10,1.242,"apple","","","2016_Oct_19_1620"
9,2,6,164,"CY",0,1.161,"banana","pear","","2016_Oct_19_1620"
9,2,6,165,"BC",9,1.226,"banana","strawberry","","2016_Oct_19_1620"
9,2,6,166,"Y",0,1.083,"","pear","","2016_Oct_19_1620"
9,2,6,167,"AB",10,1.177,"strawberry","apple","","2016_Oct_19_1620"
9,2,6,168,"AC",9,1.099,"banana","apple","","2016_Oct_19_1620"
9,2,6,169,"C",0,1.224,"banana","","","2016_Oct_19_1620"
9,2,6,170,"AY",9,1.755,"apple","pear","","2016_Oct_19_1620"
9,2,6,171,"X",0,1.13,"orange","","","2016_Oct_19_1620"
9,2,6,172,"BX",9,1.396,"orange","strawberry","","2016_Oct_19_1620"
9,2,6,173,"CX",0,1.114,"orange","banana","","2016_Oct_19_1620"
9,2,6,174,"CX",0,0.583,"banana","orange","","2016_Oct_19_1620"
9,2,6,175,"A",9,1.193,"","apple","","2016_Oct_19_1620"
9,2,6,176,"B",0,0.913,"strawberry","","","2016_Oct_19_1620"
9,2,6,177,"BY",9,1.021,"strawberry","pear","","2016_Oct_19_1620"
9,2,6,178,"AX",9,0.583,"apple","orange","","2016_Oct_19_1620"
9,2,6,179,"BX",9,0.536,"strawberry","orange","","2016_Oct_19_1620"
