"subj","phase","block","trial","stim","resp","rt","pstimL","pstimR","outcome","date"
1,1,1,1,"A",0,9.20662720804,"","banana","Stomach Ache","2016_Oct_18_1421"
1,1,1,2,"AX",1,7.12753133324,"banana","apple","Stomach Ache","2016_Oct_18_1421"
1,1,1,3,"BY",1,24.0487483326,"orange","strawberry","Stomach Ache","2016_Oct_18_1421"
1,1,1,4,"CY",1,13.7511263934,"orange","pear","No Stomach Ache","2016_Oct_18_1421"
1,1,1,5,"BY",1,6.17279264377,"strawberry","orange","Stomach Ache","2016_Oct_18_1421"
1,1,1,6,"A",1,4.37713332078,"banana","","Stomach Ache","2016_Oct_18_1421"
1,1,1,7,"CY",1,22.2983335257,"pear","orange","No Stomach Ache","2016_Oct_18_1421"
1,1,1,8,"AX",1,7.68839358439,"apple","banana","Stomach Ache","2016_Oct_18_1421"
1,1,2,9,"AX",1,2.34429180517,"apple","banana","Stomach Ache","2016_Oct_18_1421"
1,1,2,10,"CY",0,3.15672130353,"pear","orange","No Stomach Ache","2016_Oct_18_1421"
1,1,2,11,"AX",1,4.78182941768,"banana","apple","Stomach Ache","2016_Oct_18_1421"
1,1,2,12,"A",1,2.68809470569,"banana","","Stomach Ache","2016_Oct_18_1421"
1,1,2,13,"BY",0,4.75098519569,"orange","strawberry","Stomach Ache","2016_Oct_18_1421"
1,1,2,14,"CY",0,2.90683381073,"orange","pear","No Stomach Ache","2016_Oct_18_1421"
1,1,2,15,"A",1,3.06434725167,"","banana","Stomach Ache","2016_Oct_18_1421"
1,1,2,16,"BY",0,4.15685472597,"strawberry","orange","Stomach Ache","2016_Oct_18_1421"
1,1,3,17,"CY",0,1.3129605446,"orange","pear","No Stomach Ache","2016_Oct_18_1421"
1,1,3,18,"BY",1,3.1912839376,"orange","strawberry","Stomach Ache","2016_Oct_18_1421"
1,1,3,19,"CY",0,2.68936952762,"pear","orange","No Stomach Ache","2016_Oct_18_1421"
1,1,3,20,"BY",1,2.40698138397,"strawberry","orange","Stomach Ache","2016_Oct_18_1421"
1,1,3,21,"A",1,1.50009563495,"","banana","Stomach Ache","2016_Oct_18_1421"
1,1,3,22,"AX",1,1.12564444757,"apple","banana","Stomach Ache","2016_Oct_18_1421"
1,1,3,23,"A",1,0.814904189319,"banana","","Stomach Ache","2016_Oct_18_1421"
1,1,3,24,"AX",1,1.09395055159,"banana","apple","Stomach Ache","2016_Oct_18_1421"
1,1,4,25,"A",1,3.09661526844,"","banana","Stomach Ache","2016_Oct_18_1421"
1,1,4,26,"BY",1,2.09421988454,"strawberry","orange","Stomach Ache","2016_Oct_18_1421"
1,1,4,27,"BY",1,2.65645430313,"orange","strawberry","Stomach Ache","2016_Oct_18_1421"
1,1,4,28,"CY",0,2.25078132993,"pear","orange","No Stomach Ache","2016_Oct_18_1421"
1,1,4,29,"CY",0,2.34787648381,"orange","pear","No Stomach Ache","2016_Oct_18_1421"
1,1,4,30,"AX",1,4.09434117773,"apple","banana","Stomach Ache","2016_Oct_18_1421"
1,1,4,31,"A",1,2.03334503761,"banana","","Stomach Ache","2016_Oct_18_1421"
1,1,4,32,"AX",1,0.875150800042,"banana","apple","Stomach Ache","2016_Oct_18_1421"
2,1,1,1,"AX",0,16.0819027223,"pear","orange","Stomach Ache","2016_Oct_18_1456"
2,1,1,2,"A",1,6.97218281921,"","orange","Stomach Ache","2016_Oct_18_1456"
2,1,1,3,"AX",1,3.62556591799,"orange","pear","Stomach Ache","2016_Oct_18_1456"
2,1,1,4,"CY",0,9.87435399741,"strawberry","banana","No Stomach Ache","2016_Oct_18_1456"
2,1,1,5,"CY",0,4.09813609777,"banana","strawberry","No Stomach Ache","2016_Oct_18_1456"
2,1,1,6,"A",1,3.00015799206,"orange","","Stomach Ache","2016_Oct_18_1456"
2,1,1,7,"BY",0,3.15706403437,"apple","banana","Stomach Ache","2016_Oct_18_1456"
2,1,1,8,"BY",1,5.43815465248,"banana","apple","Stomach Ache","2016_Oct_18_1456"
2,1,2,9,"BY",1,4.18805100909,"apple","banana","Stomach Ache","2016_Oct_18_1456"
2,1,2,10,"A",1,3.15684881684,"orange","","Stomach Ache","2016_Oct_18_1456"
2,1,2,11,"AX",1,2.26629161171,"pear","orange","Stomach Ache","2016_Oct_18_1456"
2,1,2,12,"A",1,3.34371146414,"","orange","Stomach Ache","2016_Oct_18_1456"
2,1,2,13,"CY",0,3.21927652688,"strawberry","banana","No Stomach Ache","2016_Oct_18_1456"
2,1,2,14,"BY",1,3.65675784694,"banana","apple","Stomach Ache","2016_Oct_18_1456"
2,1,2,15,"CY",0,2.75081009814,"banana","strawberry","No Stomach Ache","2016_Oct_18_1456"
2,1,2,16,"AX",1,2.78180453705,"orange","pear","Stomach Ache","2016_Oct_18_1456"
2,1,3,17,"A",1,2.00015052792,"orange","","Stomach Ache","2016_Oct_18_1456"
2,1,3,18,"AX",1,2.03183073946,"orange","pear","Stomach Ache","2016_Oct_18_1456"
2,1,3,19,"CY",0,3.86200760043,"banana","strawberry","No Stomach Ache","2016_Oct_18_1456"
2,1,3,20,"AX",1,2.54736139224,"pear","orange","Stomach Ache","2016_Oct_18_1456"
2,1,3,21,"BY",1,1.96922637685,"apple","banana","Stomach Ache","2016_Oct_18_1456"
2,1,3,22,"CY",0,1.15674058598,"strawberry","banana","No Stomach Ache","2016_Oct_18_1456"
2,1,3,23,"A",1,0.71917156165,"","orange","Stomach Ache","2016_Oct_18_1456"
2,1,3,24,"BY",1,4.06579654914,"banana","apple","Stomach Ache","2016_Oct_18_1456"
2,1,4,25,"AX",1,2.87554826832,"pear","orange","Stomach Ache","2016_Oct_18_1456"
2,1,4,26,"A",1,0.937944877602,"","orange","Stomach Ache","2016_Oct_18_1456"
2,1,4,27,"CY",0,2.90314992046,"banana","strawberry","No Stomach Ache","2016_Oct_18_1456"
2,1,4,28,"CY",0,5.22033177712,"strawberry","banana","No Stomach Ache","2016_Oct_18_1456"
2,1,4,29,"BY",1,0.937958561932,"banana","apple","Stomach Ache","2016_Oct_18_1456"
2,1,4,30,"BY",1,1.40672604641,"apple","banana","Stomach Ache","2016_Oct_18_1456"
2,1,4,31,"A",1,2.3316247589,"orange","","Stomach Ache","2016_Oct_18_1456"
2,1,4,32,"AX",1,3.44146844314,"orange","pear","Stomach Ache","2016_Oct_18_1456"
3,1,1,1,"AX",0,9.56473896629,"strawberry","apple","Stomach Ache","2016_Oct_18_1555"
3,1,1,2,"CY",0,3.68924978958,"pear","banana","No Stomach Ache","2016_Oct_18_1555"
3,1,1,3,"CY",0,3.87554080406,"banana","pear","No Stomach Ache","2016_Oct_18_1555"
3,1,1,4,"AX",1,2.43807814451,"apple","strawberry","Stomach Ache","2016_Oct_18_1555"
3,1,1,5,"BY",1,4.81588448666,"orange","pear","Stomach Ache","2016_Oct_18_1555"
3,1,1,6,"BY",1,1.87554111506,"pear","orange","Stomach Ache","2016_Oct_18_1555"
3,1,1,7,"A",1,1.46916277567,"","strawberry","Stomach Ache","2016_Oct_18_1555"
3,1,1,8,"A",1,0.875445946644,"strawberry","","Stomach Ache","2016_Oct_18_1555"
3,1,2,9,"BY",1,1.03319730877,"pear","orange","Stomach Ache","2016_Oct_18_1555"
3,1,2,10,"A",1,0.625484433898,"","strawberry","Stomach Ache","2016_Oct_18_1555"
3,1,2,11,"CY",0,0.625415390125,"banana","pear","No Stomach Ache","2016_Oct_18_1555"
3,1,2,12,"BY",1,1.68801757571,"orange","pear","Stomach Ache","2016_Oct_18_1555"
3,1,2,13,"AX",1,0.626324777608,"apple","strawberry","Stomach Ache","2016_Oct_18_1555"
3,1,2,14,"A",1,0.594142910035,"strawberry","","Stomach Ache","2016_Oct_18_1555"
3,1,2,15,"AX",1,0.656585859542,"strawberry","apple","Stomach Ache","2016_Oct_18_1555"
3,1,2,16,"CY",0,0.797432379855,"pear","banana","No Stomach Ache","2016_Oct_18_1555"
3,1,3,17,"BY",1,0.87535046722,"pear","orange","Stomach Ache","2016_Oct_18_1555"
3,1,3,18,"A",1,0.56288473634,"strawberry","","Stomach Ache","2016_Oct_18_1555"
3,1,3,19,"AX",1,0.468314967758,"apple","strawberry","Stomach Ache","2016_Oct_18_1555"
3,1,3,20,"CY",0,0.68790374673,"pear","banana","No Stomach Ache","2016_Oct_18_1555"
3,1,3,21,"A",1,0.687869846821,"","strawberry","Stomach Ache","2016_Oct_18_1555"
3,1,3,22,"CY",0,0.878906533064,"banana","pear","No Stomach Ache","2016_Oct_18_1555"
3,1,3,23,"AX",1,0.69127911696,"strawberry","apple","Stomach Ache","2016_Oct_18_1555"
3,1,3,24,"BY",1,2.98460261413,"orange","pear","Stomach Ache","2016_Oct_18_1555"
3,1,4,25,"A",1,1.46922777634,"","strawberry","Stomach Ache","2016_Oct_18_1555"
3,1,4,26,"AX",1,0.937939901429,"strawberry","apple","Stomach Ache","2016_Oct_18_1555"
3,1,4,27,"CY",0,1.06286965247,"pear","banana","No Stomach Ache","2016_Oct_18_1555"
3,1,4,28,"A",1,0.816245877941,"strawberry","","Stomach Ache","2016_Oct_18_1555"
3,1,4,29,"BY",1,1.09423854505,"orange","pear","Stomach Ache","2016_Oct_18_1555"
3,1,4,30,"BY",1,1.87564685784,"pear","orange","Stomach Ache","2016_Oct_18_1555"
3,1,4,31,"CY",0,1.65666952066,"banana","pear","No Stomach Ache","2016_Oct_18_1555"
3,1,4,32,"AX",1,1.03188765392,"apple","strawberry","Stomach Ache","2016_Oct_18_1555"
4,1,1,1,"CY",1,17.3145240622,"banana","strawberry","No Stomach Ache","2016_Oct_18_1602"
4,1,1,2,"CY",1,7.31321969297,"strawberry","banana","No Stomach Ache","2016_Oct_18_1602"
4,1,1,3,"BY",0,11.1454014139,"pear","strawberry","Stomach Ache","2016_Oct_18_1602"
4,1,1,4,"AX",1,6.80026945769,"orange","apple","Stomach Ache","2016_Oct_18_1602"
4,1,1,5,"BY",1,2.96925464034,"strawberry","pear","Stomach Ache","2016_Oct_18_1602"
4,1,1,6,"AX",1,6.90714034904,"apple","orange","Stomach Ache","2016_Oct_18_1602"
4,1,1,7,"A",1,1.87285509153,"apple","","Stomach Ache","2016_Oct_18_1602"
4,1,1,8,"A",1,3.15683719364,"","apple","Stomach Ache","2016_Oct_18_1602"
4,1,2,9,"BY",1,4.98514623771,"strawberry","pear","Stomach Ache","2016_Oct_18_1602"
4,1,2,10,"AX",1,3.34785639,"apple","orange","Stomach Ache","2016_Oct_18_1602"
4,1,2,11,"CY",0,1.56324682845,"strawberry","banana","No Stomach Ache","2016_Oct_18_1602"
4,1,2,12,"BY",1,1.21918007603,"pear","strawberry","Stomach Ache","2016_Oct_18_1602"
4,1,2,13,"CY",0,3.33183790115,"banana","strawberry","No Stomach Ache","2016_Oct_18_1602"
4,1,2,14,"A",1,1.93947309576,"apple","","Stomach Ache","2016_Oct_18_1602"
4,1,2,15,"A",1,5.97047037224,"","apple","Stomach Ache","2016_Oct_18_1602"
4,1,2,16,"AX",1,1.15359928494,"orange","apple","Stomach Ache","2016_Oct_18_1602"
4,1,3,17,"CY",0,1.09454438352,"strawberry","banana","No Stomach Ache","2016_Oct_18_1602"
4,1,3,18,"AX",1,1.15936538111,"apple","orange","Stomach Ache","2016_Oct_18_1602"
4,1,3,19,"A",1,1.12542845297,"apple","","Stomach Ache","2016_Oct_18_1602"
4,1,3,20,"BY",1,1.11263512151,"strawberry","pear","Stomach Ache","2016_Oct_18_1602"
4,1,3,21,"A",1,1.75067481049,"","apple","Stomach Ache","2016_Oct_18_1602"
4,1,3,22,"AX",1,1.59739306523,"orange","apple","Stomach Ache","2016_Oct_18_1602"
4,1,3,23,"CY",0,1.09422062378,"banana","strawberry","No Stomach Ache","2016_Oct_18_1602"
4,1,3,24,"BY",1,1.87548964389,"pear","strawberry","Stomach Ache","2016_Oct_18_1602"
4,1,4,25,"CY",0,1.65697388182,"banana","strawberry","No Stomach Ache","2016_Oct_18_1602"
4,1,4,26,"CY",0,1.56298744737,"strawberry","banana","No Stomach Ache","2016_Oct_18_1602"
4,1,4,27,"BY",1,1.87598165922,"strawberry","pear","Stomach Ache","2016_Oct_18_1602"
4,1,4,28,"A",1,0.875428064202,"apple","","Stomach Ache","2016_Oct_18_1602"
4,1,4,29,"A",1,0.405484695744,"","apple","Stomach Ache","2016_Oct_18_1602"
4,1,4,30,"AX",1,0.68782094121,"orange","apple","Stomach Ache","2016_Oct_18_1602"
4,1,4,31,"BY",1,2.59698471113,"pear","strawberry","Stomach Ache","2016_Oct_18_1602"
4,1,4,32,"AX",1,1.09410212957,"apple","orange","Stomach Ache","2016_Oct_18_1602"
5,1,1,1,"AX",1,9.50310121663,"orange","apple","Stomach Ache","2016_Oct_19_1457"
5,1,1,2,"A",1,5.21606381383,"","apple","Stomach Ache","2016_Oct_19_1457"
5,1,1,3,"A",1,5.03213801543,"apple","","Stomach Ache","2016_Oct_19_1457"
5,1,1,4,"BY",1,4.87557190488,"strawberry","banana","Stomach Ache","2016_Oct_19_1457"
5,1,1,5,"BY",1,5.68808941852,"banana","strawberry","Stomach Ache","2016_Oct_19_1457"
5,1,1,6,"CY",1,8.18685984827,"pear","strawberry","No Stomach Ache","2016_Oct_19_1457"
5,1,1,7,"CY",0,4.22354511218,"strawberry","pear","No Stomach Ache","2016_Oct_19_1457"
5,1,1,8,"AX",1,3.9068328776,"apple","orange","Stomach Ache","2016_Oct_19_1457"
5,1,2,9,"CY",0,5.36293455987,"strawberry","pear","No Stomach Ache","2016_Oct_19_1457"
5,1,2,10,"CY",0,1.90672184783,"pear","strawberry","No Stomach Ache","2016_Oct_19_1457"
5,1,2,11,"A",1,2.3785605366,"","apple","Stomach Ache","2016_Oct_19_1457"
5,1,2,12,"BY",1,3.31308463681,"banana","strawberry","Stomach Ache","2016_Oct_19_1457"
5,1,2,13,"A",1,1.34673943842,"apple","","Stomach Ache","2016_Oct_19_1457"
5,1,2,14,"AX",1,2.37553349539,"orange","apple","Stomach Ache","2016_Oct_19_1457"
5,1,2,15,"BY",1,2.28382500075,"strawberry","banana","Stomach Ache","2016_Oct_19_1457"
5,1,2,16,"AX",1,1.92409755575,"apple","orange","Stomach Ache","2016_Oct_19_1457"
5,1,3,17,"CY",0,2.59418707323,"strawberry","pear","No Stomach Ache","2016_Oct_19_1457"
5,1,3,18,"CY",0,1.31318726949,"pear","strawberry","No Stomach Ache","2016_Oct_19_1457"
5,1,3,19,"BY",1,1.81285309134,"strawberry","banana","Stomach Ache","2016_Oct_19_1457"
5,1,3,20,"BY",1,1.28166349488,"banana","strawberry","Stomach Ache","2016_Oct_19_1457"
5,1,3,21,"A",1,1.93826645985,"apple","","Stomach Ache","2016_Oct_19_1457"
5,1,3,22,"AX",1,1.75040609873,"orange","apple","Stomach Ache","2016_Oct_19_1457"
5,1,3,23,"AX",1,1.59408848366,"apple","orange","Stomach Ache","2016_Oct_19_1457"
5,1,3,24,"A",1,2.34451697499,"","apple","Stomach Ache","2016_Oct_19_1457"
5,1,4,25,"CY",0,3.93813987961,"pear","strawberry","No Stomach Ache","2016_Oct_19_1457"
5,1,4,26,"A",1,2.03170011606,"apple","","Stomach Ache","2016_Oct_19_1457"
5,1,4,27,"AX",1,2.98606435192,"apple","orange","Stomach Ache","2016_Oct_19_1457"
5,1,4,28,"BY",1,2.25272450817,"strawberry","banana","Stomach Ache","2016_Oct_19_1457"
5,1,4,29,"BY",1,4.15716511197,"banana","strawberry","Stomach Ache","2016_Oct_19_1457"
5,1,4,30,"CY",0,2.81303472002,"strawberry","pear","No Stomach Ache","2016_Oct_19_1457"
5,1,4,31,"A",1,3.25051666214,"","apple","Stomach Ache","2016_Oct_19_1457"
5,1,4,32,"AX",1,3.84436318144,"orange","apple","Stomach Ache","2016_Oct_19_1457"
6,1,1,1,"CY",0,9.79806969513,"banana","orange","No Stomach Ache","2016_Oct_19_1507"
6,1,1,2,"A",0,3.69131667592,"pear","","Stomach Ache","2016_Oct_19_1507"
6,1,1,3,"A",1,4.33488578367,"","pear","Stomach Ache","2016_Oct_19_1507"
6,1,1,4,"AX",1,4.71001667937,"pear","apple","Stomach Ache","2016_Oct_19_1507"
6,1,1,5,"CY",0,2.95532675012,"orange","banana","No Stomach Ache","2016_Oct_19_1507"
6,1,1,6,"BY",0,4.79747940111,"strawberry","orange","Stomach Ache","2016_Oct_19_1507"
6,1,1,7,"AX",1,2.96900303452,"apple","pear","Stomach Ache","2016_Oct_19_1507"
6,1,1,8,"BY",1,2.40707643685,"orange","strawberry","Stomach Ache","2016_Oct_19_1507"
6,1,2,9,"CY",0,3.75060980977,"orange","banana","No Stomach Ache","2016_Oct_19_1507"
6,1,2,10,"BY",1,1.96920830011,"strawberry","orange","Stomach Ache","2016_Oct_19_1507"
6,1,2,11,"A",1,1.50071080978,"","pear","Stomach Ache","2016_Oct_19_1507"
6,1,2,12,"AX",1,1.68799448392,"apple","pear","Stomach Ache","2016_Oct_19_1507"
6,1,2,13,"A",1,1.84669959417,"pear","","Stomach Ache","2016_Oct_19_1507"
6,1,2,14,"AX",1,1.72287127958,"pear","apple","Stomach Ache","2016_Oct_19_1507"
6,1,2,15,"BY",1,3.03176857735,"orange","strawberry","Stomach Ache","2016_Oct_19_1507"
6,1,2,16,"CY",0,1.46895373968,"banana","orange","No Stomach Ache","2016_Oct_19_1507"
6,1,3,17,"BY",1,1.43806096201,"orange","strawberry","Stomach Ache","2016_Oct_19_1507"
6,1,3,18,"AX",1,1.62523018511,"apple","pear","Stomach Ache","2016_Oct_19_1507"
6,1,3,19,"A",1,1.532032157,"pear","","Stomach Ache","2016_Oct_19_1507"
6,1,3,20,"CY",0,2.09490639734,"orange","banana","No Stomach Ache","2016_Oct_19_1507"
6,1,3,21,"A",1,1.43547679303,"","pear","Stomach Ache","2016_Oct_19_1507"
6,1,3,22,"CY",0,1.28391336923,"banana","orange","No Stomach Ache","2016_Oct_19_1507"
6,1,3,23,"BY",1,1.53175007238,"strawberry","orange","Stomach Ache","2016_Oct_19_1507"
6,1,3,24,"AX",1,1.37903374038,"pear","apple","Stomach Ache","2016_Oct_19_1507"
6,1,4,25,"AX",1,1.44142451813,"apple","pear","Stomach Ache","2016_Oct_19_1507"
6,1,4,26,"BY",1,1.15854898398,"orange","strawberry","Stomach Ache","2016_Oct_19_1507"
6,1,4,27,"A",1,1.15356662904,"","pear","Stomach Ache","2016_Oct_19_1507"
6,1,4,28,"A",1,1.03283844632,"pear","","Stomach Ache","2016_Oct_19_1507"
6,1,4,29,"BY",1,1.50431166525,"strawberry","orange","Stomach Ache","2016_Oct_19_1507"
6,1,4,30,"CY",0,1.40834877233,"banana","orange","No Stomach Ache","2016_Oct_19_1507"
6,1,4,31,"CY",0,2.9067839334,"orange","banana","No Stomach Ache","2016_Oct_19_1507"
6,1,4,32,"AX",1,1.37544190406,"pear","apple","Stomach Ache","2016_Oct_19_1507"
7,1,1,1,"A",0,3.87557719206,"apple","","Stomach Ache","2016_Oct_19_1535"
7,1,1,2,"CY",0,4.93815698504,"pear","orange","No Stomach Ache","2016_Oct_19_1535"
7,1,1,3,"AX",1,2.65971988754,"apple","strawberry","Stomach Ache","2016_Oct_19_1535"
7,1,1,4,"AX",1,4.78208475525,"strawberry","apple","Stomach Ache","2016_Oct_19_1535"
7,1,1,5,"CY",1,3.12596167572,"orange","pear","No Stomach Ache","2016_Oct_19_1535"
7,1,1,6,"A",1,2.75056409085,"","apple","Stomach Ache","2016_Oct_19_1535"
7,1,1,7,"BY",0,2.46923368552,"pear","banana","Stomach Ache","2016_Oct_19_1535"
7,1,1,8,"BY",1,2.00325438811,"banana","pear","Stomach Ache","2016_Oct_19_1535"
7,1,2,9,"BY",1,2.15732497012,"pear","banana","Stomach Ache","2016_Oct_19_1535"
7,1,2,10,"CY",0,2.4380625941,"orange","pear","No Stomach Ache","2016_Oct_19_1535"
7,1,2,11,"AX",1,2.10981444945,"strawberry","apple","Stomach Ache","2016_Oct_19_1535"
7,1,2,12,"CY",0,3.62906693545,"pear","orange","No Stomach Ache","2016_Oct_19_1535"
7,1,2,13,"A",1,2.09429017239,"","apple","Stomach Ache","2016_Oct_19_1535"
7,1,2,14,"A",1,1.81524629809,"apple","","Stomach Ache","2016_Oct_19_1535"
7,1,2,15,"AX",1,2.56319574441,"apple","strawberry","Stomach Ache","2016_Oct_19_1535"
7,1,2,16,"BY",1,2.31265793374,"banana","pear","Stomach Ache","2016_Oct_19_1535"
7,1,3,17,"AX",1,2.34171385958,"apple","strawberry","Stomach Ache","2016_Oct_19_1535"
7,1,3,18,"BY",0,2.46933072002,"banana","pear","Stomach Ache","2016_Oct_19_1535"
7,1,3,19,"CY",1,1.93806119455,"pear","orange","No Stomach Ache","2016_Oct_19_1535"
7,1,3,20,"BY",1,1.68796439329,"pear","banana","Stomach Ache","2016_Oct_19_1535"
7,1,3,21,"A",1,1.2816983278,"apple","","Stomach Ache","2016_Oct_19_1535"
7,1,3,22,"CY",0,2.18800497986,"orange","pear","No Stomach Ache","2016_Oct_19_1535"
7,1,3,23,"A",1,1.31314435031,"","apple","Stomach Ache","2016_Oct_19_1535"
7,1,3,24,"AX",0,2.15477190516,"strawberry","apple","Stomach Ache","2016_Oct_19_1535"
7,1,4,25,"AX",1,1.53284198209,"apple","strawberry","Stomach Ache","2016_Oct_19_1535"
7,1,4,26,"CY",1,2.84433830087,"pear","orange","No Stomach Ache","2016_Oct_19_1535"
7,1,4,27,"AX",1,2.18799969269,"strawberry","apple","Stomach Ache","2016_Oct_19_1535"
7,1,4,28,"A",1,2.09442919295,"","apple","Stomach Ache","2016_Oct_19_1535"
7,1,4,29,"BY",1,1.62545457715,"pear","banana","Stomach Ache","2016_Oct_19_1535"
7,1,4,30,"CY",0,1.75046208018,"orange","pear","No Stomach Ache","2016_Oct_19_1535"
7,1,4,31,"BY",0,2.78374678228,"banana","pear","Stomach Ache","2016_Oct_19_1535"
7,1,4,32,"A",1,1.22131238552,"apple","","Stomach Ache","2016_Oct_19_1535"
8,1,1,1,"BY",0,18.9427449044,"orange","strawberry","Stomach Ache","2016_Oct_19_1542"
8,1,1,2,"CY",1,6.92255828064,"apple","orange","No Stomach Ache","2016_Oct_19_1542"
8,1,1,3,"A",0,6.47300027031,"pear","","Stomach Ache","2016_Oct_19_1542"
8,1,1,4,"AX",0,6.12587008491,"banana","pear","Stomach Ache","2016_Oct_19_1542"
8,1,1,5,"A",1,2.22030281648,"","pear","Stomach Ache","2016_Oct_19_1542"
8,1,1,6,"CY",1,6.56346080219,"orange","apple","No Stomach Ache","2016_Oct_19_1542"
8,1,1,7,"BY",1,4.18846395117,"strawberry","orange","Stomach Ache","2016_Oct_19_1542"
8,1,1,8,"AX",1,1.96922353946,"pear","banana","Stomach Ache","2016_Oct_19_1542"
8,1,2,9,"BY",1,1.71948190971,"orange","strawberry","Stomach Ache","2016_Oct_19_1542"
8,1,2,10,"AX",1,1.37545185635,"banana","pear","Stomach Ache","2016_Oct_19_1542"
8,1,2,11,"CY",0,6.21972713986,"orange","apple","No Stomach Ache","2016_Oct_19_1542"
8,1,2,12,"A",1,1.03169735649,"pear","","Stomach Ache","2016_Oct_19_1542"
8,1,2,13,"CY",0,4.18810940156,"apple","orange","No Stomach Ache","2016_Oct_19_1542"
8,1,2,14,"A",1,1.5830269641,"","pear","Stomach Ache","2016_Oct_19_1542"
8,1,2,15,"AX",1,1.50042685907,"pear","banana","Stomach Ache","2016_Oct_19_1542"
8,1,2,16,"BY",1,1.25273259776,"strawberry","orange","Stomach Ache","2016_Oct_19_1542"
8,1,3,17,"A",1,0.972372810764,"pear","","Stomach Ache","2016_Oct_19_1542"
8,1,3,18,"CY",0,3.06297733961,"apple","orange","No Stomach Ache","2016_Oct_19_1542"
8,1,3,19,"BY",1,1.56449148414,"strawberry","orange","Stomach Ache","2016_Oct_19_1542"
8,1,3,20,"BY",1,1.68886126444,"orange","strawberry","Stomach Ache","2016_Oct_19_1542"
8,1,3,21,"A",1,1.59172338166,"","pear","Stomach Ache","2016_Oct_19_1542"
8,1,3,22,"AX",1,0.878811835835,"pear","banana","Stomach Ache","2016_Oct_19_1542"
8,1,3,23,"CY",0,3.06301652669,"orange","apple","No Stomach Ache","2016_Oct_19_1542"
8,1,3,24,"AX",1,0.969161959772,"banana","pear","Stomach Ache","2016_Oct_19_1542"
8,1,4,25,"AX",1,0.937963460863,"pear","banana","Stomach Ache","2016_Oct_19_1542"
8,1,4,26,"BY",1,1.00044474204,"strawberry","orange","Stomach Ache","2016_Oct_19_1542"
8,1,4,27,"CY",0,2.8757664414,"apple","orange","No Stomach Ache","2016_Oct_19_1542"
8,1,4,28,"A",1,1.06297578459,"pear","","Stomach Ache","2016_Oct_19_1542"
8,1,4,29,"CY",0,2.00133173808,"orange","apple","No Stomach Ache","2016_Oct_19_1542"
8,1,4,30,"A",1,0.967100907001,"","pear","Stomach Ache","2016_Oct_19_1542"
8,1,4,31,"AX",1,1.00393363455,"banana","pear","Stomach Ache","2016_Oct_19_1542"
8,1,4,32,"BY",1,1.75049598067,"orange","strawberry","Stomach Ache","2016_Oct_19_1542"
9,1,1,1,"CY",1,8.09502726141,"banana","pear","No Stomach Ache","2016_Oct_19_1620"
9,1,1,2,"BY",0,3.84434172197,"strawberry","pear","Stomach Ache","2016_Oct_19_1620"
9,1,1,3,"AX",0,6.40510258445,"apple","orange","Stomach Ache","2016_Oct_19_1620"
9,1,1,4,"CY",0,1.59421630797,"pear","banana","No Stomach Ache","2016_Oct_19_1620"
9,1,1,5,"A",0,2.25081771787,"apple","","Stomach Ache","2016_Oct_19_1620"
9,1,1,6,"BY",1,2.20333363296,"pear","strawberry","Stomach Ache","2016_Oct_19_1620"
9,1,1,7,"AX",1,2.09726900735,"orange","apple","Stomach Ache","2016_Oct_19_1620"
9,1,1,8,"A",1,1.15687089838,"","apple","Stomach Ache","2016_Oct_19_1620"
9,1,2,9,"CY",0,1.59416623565,"pear","banana","No Stomach Ache","2016_Oct_19_1620"
9,1,2,10,"BY",1,2.0320652395,"strawberry","pear","Stomach Ache","2016_Oct_19_1620"
9,1,2,11,"CY",0,1.000310075,"banana","pear","No Stomach Ache","2016_Oct_19_1620"
9,1,2,12,"BY",1,0.910114323429,"pear","strawberry","Stomach Ache","2016_Oct_19_1620"
9,1,2,13,"AX",1,0.969380325812,"apple","orange","Stomach Ache","2016_Oct_19_1620"
9,1,2,14,"AX",1,1.09423636802,"orange","apple","Stomach Ache","2016_Oct_19_1620"
9,1,2,15,"A",1,1.59436372574,"","apple","Stomach Ache","2016_Oct_19_1620"
9,1,2,16,"A",1,1.03195669776,"apple","","Stomach Ache","2016_Oct_19_1620"
9,1,3,17,"CY",0,0.937927772116,"banana","pear","No Stomach Ache","2016_Oct_19_1620"
9,1,3,18,"AX",1,2.03180803586,"apple","orange","Stomach Ache","2016_Oct_19_1620"
9,1,3,19,"BY",1,2.65667760692,"strawberry","pear","Stomach Ache","2016_Oct_19_1620"
9,1,3,20,"CY",0,1.34717920376,"pear","banana","No Stomach Ache","2016_Oct_19_1620"
9,1,3,21,"AX",1,1.58110638621,"orange","apple","Stomach Ache","2016_Oct_19_1620"
9,1,3,22,"A",1,0.750427869265,"apple","","Stomach Ache","2016_Oct_19_1620"
9,1,3,23,"BY",1,0.969517791411,"pear","strawberry","Stomach Ache","2016_Oct_19_1620"
9,1,3,24,"A",1,1.03174521227,"","apple","Stomach Ache","2016_Oct_19_1620"
9,1,4,25,"CY",0,0.937821096391,"pear","banana","No Stomach Ache","2016_Oct_19_1620"
9,1,4,26,"AX",1,1.06327613996,"orange","apple","Stomach Ache","2016_Oct_19_1620"
9,1,4,27,"BY",1,1.18789643806,"pear","strawberry","Stomach Ache","2016_Oct_19_1620"
9,1,4,28,"AX",1,0.875465540157,"apple","orange","Stomach Ache","2016_Oct_19_1620"
9,1,4,29,"BY",1,1.21731220011,"strawberry","pear","Stomach Ache","2016_Oct_19_1620"
9,1,4,30,"A",1,0.937971313251,"apple","","Stomach Ache","2016_Oct_19_1620"
9,1,4,31,"A",1,0.75023037917,"","apple","Stomach Ache","2016_Oct_19_1620"
9,1,4,32,"CY",0,0.937917508883,"banana","pear","No Stomach Ache","2016_Oct_19_1620"
10,1,1,1,"CY",1,3.95404259634,"pear","strawberry","No Stomach Ache","2016_Oct_19_1633"
10,1,1,2,"AX",1,1.78382333228,"banana","orange","Stomach Ache","2016_Oct_19_1633"
10,1,1,3,"CY",0,0.813239131006,"strawberry","pear","No Stomach Ache","2016_Oct_19_1633"
10,1,1,4,"BY",1,0.595868501929,"apple","pear","Stomach Ache","2016_Oct_19_1633"
10,1,1,5,"A",0,1.9066293622,"orange","","Stomach Ache","2016_Oct_19_1633"
10,1,1,6,"BY",1,1.90673075098,"pear","apple","Stomach Ache","2016_Oct_19_1633"
10,1,1,7,"A",1,0.969166313938,"","orange","Stomach Ache","2016_Oct_19_1633"
10,1,1,8,"AX",1,2.54825062427,"orange","banana","Stomach Ache","2016_Oct_19_1633"
10,1,2,9,"BY",0,0.844198775419,"apple","pear","Stomach Ache","2016_Oct_19_1633"
10,1,2,10,"A",0,0.813011161808,"orange","","Stomach Ache","2016_Oct_19_1633"
10,1,2,11,"AX",1,1.50301165011,"banana","orange","Stomach Ache","2016_Oct_19_1633"
10,1,2,12,"A",1,0.625376048032,"","orange","Stomach Ache","2016_Oct_19_1633"
10,1,2,13,"CY",0,7.15712767548,"strawberry","pear","No Stomach Ache","2016_Oct_19_1633"
10,1,2,14,"AX",1,0.595578020089,"orange","banana","Stomach Ache","2016_Oct_19_1633"
10,1,2,15,"BY",0,0.750347007648,"pear","apple","Stomach Ache","2016_Oct_19_1633"
10,1,2,16,"CY",0,2.81326960982,"pear","strawberry","No Stomach Ache","2016_Oct_19_1633"
10,1,3,17,"A",1,0.597033539496,"","orange","Stomach Ache","2016_Oct_19_1633"
10,1,3,18,"CY",1,2.19101857435,"strawberry","pear","No Stomach Ache","2016_Oct_19_1633"
10,1,3,19,"AX",1,0.750477631227,"banana","orange","Stomach Ache","2016_Oct_19_1633"
10,1,3,20,"BY",1,4.56317125336,"pear","apple","Stomach Ache","2016_Oct_19_1633"
10,1,3,21,"A",1,0.656642657821,"orange","","Stomach Ache","2016_Oct_19_1633"
10,1,3,22,"CY",1,0.46918948408,"pear","strawberry","No Stomach Ache","2016_Oct_19_1633"
10,1,3,23,"BY",0,0.937953508634,"apple","pear","Stomach Ache","2016_Oct_19_1633"
10,1,3,24,"AX",1,2.59592977056,"orange","banana","Stomach Ache","2016_Oct_19_1633"
10,1,4,25,"A",1,0.809639208426,"orange","","Stomach Ache","2016_Oct_19_1633"
10,1,4,26,"A",1,0.656661318382,"","orange","Stomach Ache","2016_Oct_19_1633"
10,1,4,27,"AX",1,0.81293403171,"banana","orange","Stomach Ache","2016_Oct_19_1633"
10,1,4,28,"BY",1,1.21893344633,"apple","pear","Stomach Ache","2016_Oct_19_1633"
10,1,4,29,"BY",1,0.753024479141,"pear","apple","Stomach Ache","2016_Oct_19_1633"
10,1,4,30,"CY",1,1.37558838911,"strawberry","pear","No Stomach Ache","2016_Oct_19_1633"
10,1,4,31,"AX",1,0.906683788751,"orange","banana","Stomach Ache","2016_Oct_19_1633"
10,1,4,32,"CY",0,1.03203946573,"pear","strawberry","No Stomach Ache","2016_Oct_19_1633"
11,1,1,1,"AX",0,12.6442739844,"pear","apple","Stomach Ache","2016_Oct_25_1421"
11,1,1,2,"BY",0,10.0954959505,"orange","strawberry","Stomach Ache","2016_Oct_25_1421"
11,1,1,3,"A",0,11.7511245273,"pear","","Stomach Ache","2016_Oct_25_1421"
11,1,1,4,"BY",1,13.7199888908,"strawberry","orange","Stomach Ache","2016_Oct_25_1421"
11,1,1,5,"A",1,10.4853028487,"","pear","Stomach Ache","2016_Oct_25_1421"
11,1,1,6,"CY",1,5.43839692767,"orange","banana","No Stomach Ache","2016_Oct_25_1421"
11,1,1,7,"AX",1,6.71951553656,"apple","pear","Stomach Ache","2016_Oct_25_1421"
11,1,1,8,"CY",0,4.06415256066,"banana","orange","No Stomach Ache","2016_Oct_25_1421"
11,1,2,9,"A",1,5.75029786793,"pear","","Stomach Ache","2016_Oct_25_1421"
11,1,2,10,"AX",1,4.19031172642,"apple","pear","Stomach Ache","2016_Oct_25_1421"
11,1,2,11,"BY",1,5.5007027227,"strawberry","orange","Stomach Ache","2016_Oct_25_1421"
11,1,2,12,"CY",0,5.46960471815,"orange","banana","No Stomach Ache","2016_Oct_25_1421"
11,1,2,13,"AX",1,4.06315826799,"pear","apple","Stomach Ache","2016_Oct_25_1421"
11,1,2,14,"CY",0,8.75092828122,"banana","orange","No Stomach Ache","2016_Oct_25_1421"
11,1,2,15,"BY",1,7.59351685096,"orange","strawberry","Stomach Ache","2016_Oct_25_1421"
11,1,2,16,"A",1,2.8442736112,"","pear","Stomach Ache","2016_Oct_25_1421"
11,1,3,17,"CY",0,2.25182289584,"orange","banana","No Stomach Ache","2016_Oct_25_1421"
11,1,3,18,"BY",1,2.73525627528,"orange","strawberry","Stomach Ache","2016_Oct_25_1421"
11,1,3,19,"AX",1,4.06300929503,"apple","pear","Stomach Ache","2016_Oct_25_1421"
11,1,3,20,"A",1,2.18652240455,"","pear","Stomach Ache","2016_Oct_25_1421"
11,1,3,21,"A",1,3.43812230765,"pear","","Stomach Ache","2016_Oct_25_1421"
11,1,3,22,"CY",0,2.45991464076,"banana","orange","No Stomach Ache","2016_Oct_25_1421"
11,1,3,23,"BY",1,2.82887995744,"strawberry","orange","Stomach Ache","2016_Oct_25_1421"
11,1,3,24,"AX",1,3.75051308551,"pear","apple","Stomach Ache","2016_Oct_25_1421"
11,1,4,25,"CY",0,5.10998892505,"banana","orange","No Stomach Ache","2016_Oct_25_1421"
11,1,4,26,"A",1,2.06300929503,"pear","","Stomach Ache","2016_Oct_25_1421"
11,1,4,27,"AX",1,4.93815200892,"apple","pear","Stomach Ache","2016_Oct_25_1421"
11,1,4,28,"BY",1,4.9229222564,"orange","strawberry","Stomach Ache","2016_Oct_25_1421"
11,1,4,29,"BY",1,5.03180243773,"strawberry","orange","Stomach Ache","2016_Oct_25_1421"
11,1,4,30,"AX",1,5.28538159595,"pear","apple","Stomach Ache","2016_Oct_25_1421"
11,1,4,31,"A",1,2.15727116563,"","pear","Stomach Ache","2016_Oct_25_1421"
11,1,4,32,"CY",0,4.32880422694,"orange","banana","No Stomach Ache","2016_Oct_25_1421"
12,1,1,1,"AX",1,10.7623472677,"pear","banana","Stomach Ache","2016_Oct_25_1428"
12,1,1,2,"A",1,5.52938018821,"banana","","Stomach Ache","2016_Oct_25_1428"
12,1,1,3,"CY",0,2.56421064353,"orange","apple","No Stomach Ache","2016_Oct_25_1428"
12,1,1,4,"BY",0,1.40689542994,"strawberry","apple","Stomach Ache","2016_Oct_25_1428"
12,1,1,5,"AX",0,2.27838021843,"banana","pear","Stomach Ache","2016_Oct_25_1428"
12,1,1,6,"BY",1,1.30991585052,"apple","strawberry","Stomach Ache","2016_Oct_25_1428"
12,1,1,7,"A",0,1.34416098788,"","banana","Stomach Ache","2016_Oct_25_1428"
12,1,1,8,"CY",0,1.34412366687,"apple","orange","No Stomach Ache","2016_Oct_25_1428"
12,1,2,9,"A",0,0.937925828854,"","banana","Stomach Ache","2016_Oct_25_1428"
12,1,2,10,"CY",0,1.34437558381,"orange","apple","No Stomach Ache","2016_Oct_25_1428"
12,1,2,11,"AX",1,1.15658558777,"banana","pear","Stomach Ache","2016_Oct_25_1428"
12,1,2,12,"AX",1,0.875357776298,"pear","banana","Stomach Ache","2016_Oct_25_1428"
12,1,2,13,"BY",1,1.28164611792,"apple","strawberry","Stomach Ache","2016_Oct_25_1428"
12,1,2,14,"A",1,1.12568285782,"banana","","Stomach Ache","2016_Oct_25_1428"
12,1,2,15,"BY",1,1.81291941425,"strawberry","apple","Stomach Ache","2016_Oct_25_1428"
12,1,2,16,"CY",0,1.18792279647,"apple","orange","No Stomach Ache","2016_Oct_25_1428"
12,1,3,17,"CY",0,2.00050943182,"apple","orange","No Stomach Ache","2016_Oct_25_1428"
12,1,3,18,"BY",1,0.967474117177,"strawberry","apple","Stomach Ache","2016_Oct_25_1428"
12,1,3,19,"AX",1,1.21972278575,"pear","banana","Stomach Ache","2016_Oct_25_1428"
12,1,3,20,"BY",1,1.72051912278,"apple","strawberry","Stomach Ache","2016_Oct_25_1428"
12,1,3,21,"AX",1,1.40669296344,"banana","pear","Stomach Ache","2016_Oct_25_1428"
12,1,3,22,"A",1,1.37279366737,"","banana","Stomach Ache","2016_Oct_25_1428"
12,1,3,23,"A",1,0.594161065645,"banana","","Stomach Ache","2016_Oct_25_1428"
12,1,3,24,"CY",0,0.719079153729,"orange","apple","No Stomach Ache","2016_Oct_25_1428"
12,1,4,25,"BY",1,0.969244376989,"apple","strawberry","Stomach Ache","2016_Oct_25_1428"
12,1,4,26,"A",1,2.31076272647,"","banana","Stomach Ache","2016_Oct_25_1428"
12,1,4,27,"BY",1,0.969495671801,"strawberry","apple","Stomach Ache","2016_Oct_25_1428"
12,1,4,28,"AX",1,0.531544184778,"banana","pear","Stomach Ache","2016_Oct_25_1428"
12,1,4,29,"CY",0,1.09408066992,"apple","orange","No Stomach Ache","2016_Oct_25_1428"
12,1,4,30,"A",1,0.940124036395,"banana","","Stomach Ache","2016_Oct_25_1428"
12,1,4,31,"CY",0,1.21903296909,"orange","apple","No Stomach Ache","2016_Oct_25_1428"
12,1,4,32,"AX",1,0.812841973151,"pear","banana","Stomach Ache","2016_Oct_25_1428"
13,1,1,1,"A",0,7.37576892844,"","banana","Stomach Ache","2016_Oct_25_1447"
13,1,1,2,"BY",0,4.62559764076,"orange","apple","Stomach Ache","2016_Oct_25_1447"
13,1,1,3,"CY",0,1.96944750345,"strawberry","apple","No Stomach Ache","2016_Oct_25_1447"
13,1,1,4,"AX",1,1.87545900897,"pear","banana","Stomach Ache","2016_Oct_25_1447"
13,1,1,5,"A",1,1.25126277038,"banana","","Stomach Ache","2016_Oct_25_1447"
13,1,1,6,"BY",1,1.56297834986,"apple","orange","Stomach Ache","2016_Oct_25_1447"
13,1,1,7,"CY",0,1.21926066547,"apple","strawberry","No Stomach Ache","2016_Oct_25_1447"
13,1,1,8,"AX",1,1.00044691854,"banana","pear","Stomach Ache","2016_Oct_25_1447"
13,1,2,9,"AX",1,0.937865570537,"banana","pear","Stomach Ache","2016_Oct_25_1447"
13,1,2,10,"A",1,0.906359212357,"banana","","Stomach Ache","2016_Oct_25_1447"
13,1,2,11,"CY",0,2.75086607959,"strawberry","apple","No Stomach Ache","2016_Oct_25_1447"
13,1,2,12,"CY",0,0.910366239958,"apple","strawberry","No Stomach Ache","2016_Oct_25_1447"
13,1,2,13,"AX",1,0.90637320769,"pear","banana","Stomach Ache","2016_Oct_25_1447"
13,1,2,14,"BY",1,1.37565354456,"orange","apple","Stomach Ache","2016_Oct_25_1447"
13,1,2,15,"A",1,0.687898770557,"","banana","Stomach Ache","2016_Oct_25_1447"
13,1,2,16,"BY",1,0.719239672413,"apple","orange","Stomach Ache","2016_Oct_25_1447"
13,1,3,17,"AX",1,0.625482567819,"pear","banana","Stomach Ache","2016_Oct_25_1447"
13,1,3,18,"A",1,1.68792458426,"banana","","Stomach Ache","2016_Oct_25_1447"
13,1,3,19,"BY",1,0.844967781217,"orange","apple","Stomach Ache","2016_Oct_25_1447"
13,1,3,20,"AX",1,1.06508620677,"banana","pear","Stomach Ache","2016_Oct_25_1447"
13,1,3,21,"A",1,0.658095803577,"","banana","Stomach Ache","2016_Oct_25_1447"
13,1,3,22,"CY",0,0.844283874379,"strawberry","apple","No Stomach Ache","2016_Oct_25_1447"
13,1,3,23,"CY",0,0.719199552317,"apple","strawberry","No Stomach Ache","2016_Oct_25_1447"
13,1,3,24,"BY",1,0.750495669083,"apple","orange","Stomach Ache","2016_Oct_25_1447"
13,1,4,25,"BY",1,0.906607085839,"orange","apple","Stomach Ache","2016_Oct_25_1447"
13,1,4,26,"AX",1,0.625592353637,"banana","pear","Stomach Ache","2016_Oct_25_1447"
13,1,4,27,"BY",1,0.925242687343,"apple","orange","Stomach Ache","2016_Oct_25_1447"
13,1,4,28,"CY",0,0.656697200495,"strawberry","apple","No Stomach Ache","2016_Oct_25_1447"
13,1,4,29,"CY",0,0.816493440303,"apple","strawberry","No Stomach Ache","2016_Oct_25_1447"
13,1,4,30,"AX",1,0.812919336022,"pear","banana","Stomach Ache","2016_Oct_25_1447"
13,1,4,31,"A",1,0.564354249393,"","banana","Stomach Ache","2016_Oct_25_1447"
13,1,4,32,"A",1,0.934384768596,"banana","","Stomach Ache","2016_Oct_25_1447"
14,1,1,1,"A",0,5.69206745026,"","strawberry","Stomach Ache","2016_Oct_25_1456"
14,1,1,2,"CY",1,5.92503701779,"pear","apple","No Stomach Ache","2016_Oct_25_1456"
14,1,1,3,"CY",0,7.09448622493,"apple","pear","No Stomach Ache","2016_Oct_25_1456"
14,1,1,4,"AX",0,4.84437947138,"orange","strawberry","Stomach Ache","2016_Oct_25_1456"
14,1,1,5,"AX",1,2.4104026719,"strawberry","orange","Stomach Ache","2016_Oct_25_1456"
14,1,1,6,"A",1,2.40784027346,"strawberry","","Stomach Ache","2016_Oct_25_1456"
14,1,1,7,"BY",0,4.06305695779,"apple","banana","Stomach Ache","2016_Oct_25_1456"
14,1,1,8,"BY",1,1.87788782979,"banana","apple","Stomach Ache","2016_Oct_25_1456"
14,1,2,9,"CY",1,2.81305750203,"apple","pear","No Stomach Ache","2016_Oct_25_1456"
14,1,2,10,"AX",1,6.31397202227,"strawberry","orange","Stomach Ache","2016_Oct_25_1456"
14,1,2,11,"CY",0,6.00367052143,"pear","apple","No Stomach Ache","2016_Oct_25_1456"
14,1,2,12,"A",0,2.28180597618,"","strawberry","Stomach Ache","2016_Oct_25_1456"
14,1,2,13,"AX",1,4.17248589348,"orange","strawberry","Stomach Ache","2016_Oct_25_1456"
14,1,2,14,"A",1,2.71926016069,"strawberry","","Stomach Ache","2016_Oct_25_1456"
14,1,2,15,"BY",1,2.12758405239,"apple","banana","Stomach Ache","2016_Oct_25_1456"
14,1,2,16,"BY",1,1.37536850618,"banana","apple","Stomach Ache","2016_Oct_25_1456"
14,1,3,17,"CY",1,2.62550760468,"pear","apple","No Stomach Ache","2016_Oct_25_1456"
14,1,3,18,"AX",1,2.21920526784,"orange","strawberry","Stomach Ache","2016_Oct_25_1456"
14,1,3,19,"BY",1,2.81297726196,"banana","apple","Stomach Ache","2016_Oct_25_1456"
14,1,3,20,"A",0,1.71882941399,"strawberry","","Stomach Ache","2016_Oct_25_1456"
14,1,3,21,"BY",1,1.75323907495,"apple","banana","Stomach Ache","2016_Oct_25_1456"
14,1,3,22,"CY",0,2.62551662384,"apple","pear","No Stomach Ache","2016_Oct_25_1456"
14,1,3,23,"A",1,1.90687630291,"","strawberry","Stomach Ache","2016_Oct_25_1456"
14,1,3,24,"AX",0,2.03275043098,"strawberry","orange","Stomach Ache","2016_Oct_25_1456"
14,1,4,25,"A",0,2.37555200106,"","strawberry","Stomach Ache","2016_Oct_25_1456"
14,1,4,26,"BY",1,3.2193169198,"apple","banana","Stomach Ache","2016_Oct_25_1456"
14,1,4,27,"A",1,3.62553310732,"strawberry","","Stomach Ache","2016_Oct_25_1456"
14,1,4,28,"AX",0,1.87736968987,"strawberry","orange","Stomach Ache","2016_Oct_25_1456"
14,1,4,29,"CY",1,3.31307756214,"pear","apple","No Stomach Ache","2016_Oct_25_1456"
14,1,4,30,"CY",1,6.31319014705,"apple","pear","No Stomach Ache","2016_Oct_25_1456"
14,1,4,31,"AX",1,2.92092486436,"orange","strawberry","Stomach Ache","2016_Oct_25_1456"
14,1,4,32,"BY",1,1.34422070149,"banana","apple","Stomach Ache","2016_Oct_25_1456"
15,1,1,1,"CY",1,13.5635098625,"orange","apple","No Stomach Ache","2016_Oct_25_1535"
15,1,1,2,"CY",0,6.71973821823,"apple","orange","No Stomach Ache","2016_Oct_25_1535"
15,1,1,3,"A",0,3.68839451752,"pear","","Stomach Ache","2016_Oct_25_1535"
15,1,1,4,"A",1,1.75073670037,"","pear","Stomach Ache","2016_Oct_25_1535"
15,1,1,5,"AX",1,1.84451588639,"banana","pear","Stomach Ache","2016_Oct_25_1535"
15,1,1,6,"BY",0,2.75041231897,"apple","strawberry","Stomach Ache","2016_Oct_25_1535"
15,1,1,7,"AX",1,2.877241396,"pear","banana","Stomach Ache","2016_Oct_25_1535"
15,1,1,8,"BY",1,1.65673265536,"strawberry","apple","Stomach Ache","2016_Oct_25_1535"
15,1,2,9,"A",1,2.15588624694,"","pear","Stomach Ache","2016_Oct_25_1535"
15,1,2,10,"AX",1,3.40671951533,"pear","banana","Stomach Ache","2016_Oct_25_1535"
15,1,2,11,"CY",0,1.59423185838,"apple","orange","No Stomach Ache","2016_Oct_25_1535"
15,1,2,12,"AX",1,3.28173160565,"banana","pear","Stomach Ache","2016_Oct_25_1535"
15,1,2,13,"A",1,1.06292438996,"pear","","Stomach Ache","2016_Oct_25_1535"
15,1,2,14,"BY",1,3.09738532442,"strawberry","apple","Stomach Ache","2016_Oct_25_1535"
15,1,2,15,"CY",0,3.37555930903,"orange","apple","No Stomach Ache","2016_Oct_25_1535"
15,1,2,16,"BY",1,1.34243757534,"apple","strawberry","Stomach Ache","2016_Oct_25_1535"
15,1,3,17,"BY",1,1.46943801781,"apple","strawberry","Stomach Ache","2016_Oct_25_1535"
15,1,3,18,"CY",0,1.18790328025,"apple","orange","No Stomach Ache","2016_Oct_25_1535"
15,1,3,19,"A",1,2.03171411145,"pear","","Stomach Ache","2016_Oct_25_1535"
15,1,3,20,"AX",1,0.814639832592,"banana","pear","Stomach Ache","2016_Oct_25_1535"
15,1,3,21,"A",1,0.684375360608,"","pear","Stomach Ache","2016_Oct_25_1535"
15,1,3,22,"CY",0,1.15666967619,"orange","apple","No Stomach Ache","2016_Oct_25_1535"
15,1,3,23,"BY",1,0.875690398971,"strawberry","apple","Stomach Ache","2016_Oct_25_1535"
15,1,3,24,"AX",1,0.687836257974,"pear","banana","Stomach Ache","2016_Oct_25_1535"
15,1,4,25,"CY",0,1.18804820988,"apple","orange","No Stomach Ache","2016_Oct_25_1535"
15,1,4,26,"A",1,0.625638071913,"","pear","Stomach Ache","2016_Oct_25_1535"
15,1,4,27,"AX",1,0.687896282529,"pear","banana","Stomach Ache","2016_Oct_25_1535"
15,1,4,28,"CY",0,1.93815294188,"orange","apple","No Stomach Ache","2016_Oct_25_1535"
15,1,4,29,"BY",1,1.09463072615,"apple","strawberry","Stomach Ache","2016_Oct_25_1535"
15,1,4,30,"A",1,0.7506605034,"pear","","Stomach Ache","2016_Oct_25_1535"
15,1,4,31,"BY",1,1.062854724,"strawberry","apple","Stomach Ache","2016_Oct_25_1535"
15,1,4,32,"AX",1,1.06320118706,"banana","pear","Stomach Ache","2016_Oct_25_1535"
16,1,1,1,"AX",1,6.01671856875,"strawberry","orange","Stomach Ache","2016_Oct_25_1544"
16,1,1,2,"CY",1,7.56319489004,"apple","banana","No Stomach Ache","2016_Oct_25_1544"
16,1,1,3,"AX",1,2.12444535538,"orange","strawberry","Stomach Ache","2016_Oct_25_1544"
16,1,1,4,"A",1,1.0629250902,"strawberry","","Stomach Ache","2016_Oct_25_1544"
16,1,1,5,"CY",0,3.59438996785,"banana","apple","No Stomach Ache","2016_Oct_25_1544"
16,1,1,6,"BY",0,1.68785670726,"pear","banana","Stomach Ache","2016_Oct_25_1544"
16,1,1,7,"A",1,1.28170676436,"","strawberry","Stomach Ache","2016_Oct_25_1544"
16,1,1,8,"BY",1,1.12545799871,"banana","pear","Stomach Ache","2016_Oct_25_1544"
16,1,2,9,"A",1,0.719118651934,"strawberry","","Stomach Ache","2016_Oct_25_1544"
16,1,2,10,"BY",1,0.846587320091,"pear","banana","Stomach Ache","2016_Oct_25_1544"
16,1,2,11,"AX",1,1.1253373276,"strawberry","orange","Stomach Ache","2016_Oct_25_1544"
16,1,2,12,"A",1,0.625370449852,"","strawberry","Stomach Ache","2016_Oct_25_1544"
16,1,2,13,"CY",1,1.53138712549,"apple","banana","No Stomach Ache","2016_Oct_25_1544"
16,1,2,14,"AX",1,3.25077044556,"orange","strawberry","Stomach Ache","2016_Oct_25_1544"
16,1,2,15,"CY",0,1.3753921428,"banana","apple","No Stomach Ache","2016_Oct_25_1544"
16,1,2,16,"BY",1,1.28162683523,"banana","pear","Stomach Ache","2016_Oct_25_1544"
16,1,3,17,"BY",1,1.03477540682,"pear","banana","Stomach Ache","2016_Oct_25_1544"
16,1,3,18,"A",1,1.03163608781,"","strawberry","Stomach Ache","2016_Oct_25_1544"
16,1,3,19,"AX",1,1.32971775671,"orange","strawberry","Stomach Ache","2016_Oct_25_1544"
16,1,3,20,"AX",1,0.844269996393,"strawberry","orange","Stomach Ache","2016_Oct_25_1544"
16,1,3,21,"CY",0,1.96893430175,"banana","apple","No Stomach Ache","2016_Oct_25_1544"
16,1,3,22,"A",1,0.625333128963,"strawberry","","Stomach Ache","2016_Oct_25_1544"
16,1,3,23,"CY",1,2.87759050587,"apple","banana","No Stomach Ache","2016_Oct_25_1544"
16,1,3,24,"BY",1,2.8598169965,"banana","pear","Stomach Ache","2016_Oct_25_1544"
16,1,4,25,"BY",1,0.718866424053,"pear","banana","Stomach Ache","2016_Oct_25_1544"
16,1,4,26,"AX",1,0.750715241651,"orange","strawberry","Stomach Ache","2016_Oct_25_1544"
16,1,4,27,"A",1,0.687918286887,"strawberry","","Stomach Ache","2016_Oct_25_1544"
16,1,4,28,"A",1,0.843970184331,"","strawberry","Stomach Ache","2016_Oct_25_1544"
16,1,4,29,"AX",1,1.2503931924,"strawberry","orange","Stomach Ache","2016_Oct_25_1544"
16,1,4,30,"CY",1,0.625416168128,"banana","apple","No Stomach Ache","2016_Oct_25_1544"
16,1,4,31,"BY",1,1.15932588303,"banana","pear","Stomach Ache","2016_Oct_25_1544"
16,1,4,32,"CY",0,1.78163445496,"apple","banana","No Stomach Ache","2016_Oct_25_1544"
17,1,1,1,"BY",0,30.4396863671,"orange","apple","Stomach Ache","2016_Oct_25_1618"
17,1,1,2,"CY",1,8.5948274387,"strawberry","orange","No Stomach Ache","2016_Oct_25_1618"
17,1,1,3,"A",0,4.56215137942,"banana","","Stomach Ache","2016_Oct_25_1618"
17,1,1,4,"A",1,4.53194596793,"","banana","Stomach Ache","2016_Oct_25_1618"
17,1,1,5,"BY",1,3.21940652828,"apple","orange","Stomach Ache","2016_Oct_25_1618"
17,1,1,6,"CY",0,3.96993889625,"orange","strawberry","No Stomach Ache","2016_Oct_25_1618"
17,1,1,7,"AX",1,4.00093084702,"pear","banana","Stomach Ache","2016_Oct_25_1618"
17,1,1,8,"AX",1,4.97037679562,"banana","pear","Stomach Ache","2016_Oct_25_1618"
17,1,2,9,"AX",1,5.90698744869,"banana","pear","Stomach Ache","2016_Oct_25_1618"
17,1,2,10,"A",0,32.3156936832,"","banana","Stomach Ache","2016_Oct_25_1618"
17,1,2,11,"BY",1,3.12557136058,"orange","apple","Stomach Ache","2016_Oct_25_1618"
17,1,2,12,"A",1,3.597778594,"banana","","Stomach Ache","2016_Oct_25_1618"
17,1,2,13,"CY",0,8.71936998481,"orange","strawberry","No Stomach Ache","2016_Oct_25_1618"
17,1,2,14,"AX",0,9.78203748201,"pear","banana","Stomach Ache","2016_Oct_25_1618"
17,1,2,15,"CY",1,3.11284584482,"strawberry","orange","No Stomach Ache","2016_Oct_25_1618"
17,1,2,16,"BY",1,1.44064707088,"apple","orange","Stomach Ache","2016_Oct_25_1618"
17,1,3,17,"A",1,2.25048804935,"","banana","Stomach Ache","2016_Oct_25_1618"
17,1,3,18,"BY",1,1.43787194614,"apple","orange","Stomach Ache","2016_Oct_25_1618"
17,1,3,19,"CY",1,3.53168907529,"strawberry","orange","No Stomach Ache","2016_Oct_25_1618"
17,1,3,20,"AX",1,5.25058446184,"banana","pear","Stomach Ache","2016_Oct_25_1618"
17,1,3,21,"CY",1,2.21942954278,"orange","strawberry","No Stomach Ache","2016_Oct_25_1618"
17,1,3,22,"A",1,5.8757594428,"banana","","Stomach Ache","2016_Oct_25_1618"
17,1,3,23,"BY",0,1.62566823966,"orange","apple","Stomach Ache","2016_Oct_25_1618"
17,1,3,24,"AX",0,3.8131569461,"pear","banana","Stomach Ache","2016_Oct_25_1618"
17,1,4,25,"BY",1,5.00032344833,"apple","orange","Stomach Ache","2016_Oct_25_1618"
17,1,4,26,"A",0,4.96961793606,"","banana","Stomach Ache","2016_Oct_25_1618"
17,1,4,27,"BY",1,2.43801283289,"orange","apple","Stomach Ache","2016_Oct_25_1618"
17,1,4,28,"CY",1,1.37829462485,"orange","strawberry","No Stomach Ache","2016_Oct_25_1618"
17,1,4,29,"AX",1,5.0006161069,"pear","banana","Stomach Ache","2016_Oct_25_1618"
17,1,4,30,"AX",1,1.65949533973,"banana","pear","Stomach Ache","2016_Oct_25_1618"
17,1,4,31,"CY",0,2.06301986938,"strawberry","orange","No Stomach Ache","2016_Oct_25_1618"
17,1,4,32,"A",1,2.28177607979,"banana","","Stomach Ache","2016_Oct_25_1618"
18,1,1,1,"AX",0,4.59429075615,"strawberry","apple","Stomach Ache","2016_Oct_25_1627"
18,1,1,2,"AX",1,1.84183946555,"apple","strawberry","Stomach Ache","2016_Oct_25_1627"
18,1,1,3,"BY",0,1.46950266953,"banana","pear","Stomach Ache","2016_Oct_25_1627"
18,1,1,4,"BY",1,1.71921724163,"pear","banana","Stomach Ache","2016_Oct_25_1627"
18,1,1,5,"CY",1,1.99363770068,"orange","pear","No Stomach Ache","2016_Oct_25_1627"
18,1,1,6,"CY",0,1.316471286,"pear","orange","No Stomach Ache","2016_Oct_25_1627"
18,1,1,7,"A",1,1.3442586445,"","strawberry","Stomach Ache","2016_Oct_25_1627"
18,1,1,8,"A",1,0.969246554072,"strawberry","","Stomach Ache","2016_Oct_25_1627"
18,1,2,9,"CY",0,1.62759758113,"orange","pear","No Stomach Ache","2016_Oct_25_1627"
18,1,2,10,"CY",0,0.689821658423,"pear","orange","No Stomach Ache","2016_Oct_25_1627"
18,1,2,11,"A",1,0.972671689931,"strawberry","","Stomach Ache","2016_Oct_25_1627"
18,1,2,12,"BY",1,1.95832176122,"pear","banana","Stomach Ache","2016_Oct_25_1627"
18,1,2,13,"AX",0,1.68790646852,"strawberry","apple","Stomach Ache","2016_Oct_25_1627"
18,1,2,14,"AX",1,1.09231787419,"apple","strawberry","Stomach Ache","2016_Oct_25_1627"
18,1,2,15,"A",1,0.938163128332,"","strawberry","Stomach Ache","2016_Oct_25_1627"
18,1,2,16,"BY",1,1.34420701722,"banana","pear","Stomach Ache","2016_Oct_25_1627"
18,1,3,17,"A",1,0.751870948938,"strawberry","","Stomach Ache","2016_Oct_25_1627"
18,1,3,18,"A",1,0.594175061095,"","strawberry","Stomach Ache","2016_Oct_25_1627"
18,1,3,19,"AX",1,0.500547219301,"strawberry","apple","Stomach Ache","2016_Oct_25_1627"
18,1,3,20,"CY",0,1.12544213736,"pear","orange","No Stomach Ache","2016_Oct_25_1627"
18,1,3,21,"BY",1,0.687844888889,"pear","banana","Stomach Ache","2016_Oct_25_1627"
18,1,3,22,"AX",1,0.66039684054,"apple","strawberry","Stomach Ache","2016_Oct_25_1627"
18,1,3,23,"BY",1,0.531693779863,"banana","pear","Stomach Ache","2016_Oct_25_1627"
18,1,3,24,"CY",0,0.937950398424,"orange","pear","No Stomach Ache","2016_Oct_25_1627"
18,1,4,25,"AX",1,0.781676130136,"apple","strawberry","Stomach Ache","2016_Oct_25_1627"
18,1,4,26,"AX",1,0.594181903172,"strawberry","apple","Stomach Ache","2016_Oct_25_1627"
18,1,4,27,"CY",0,0.578456695308,"orange","pear","No Stomach Ache","2016_Oct_25_1627"
18,1,4,28,"A",1,0.566178704845,"","strawberry","Stomach Ache","2016_Oct_25_1627"
18,1,4,29,"A",1,0.408229656052,"strawberry","","Stomach Ache","2016_Oct_25_1627"
18,1,4,30,"BY",1,0.721616671537,"pear","banana","Stomach Ache","2016_Oct_25_1627"
18,1,4,31,"BY",1,0.656596939662,"banana","pear","Stomach Ache","2016_Oct_25_1627"
18,1,4,32,"CY",0,0.408013816341,"pear","orange","No Stomach Ache","2016_Oct_25_1627"
19,1,1,1,"AX",0,10.9727799546,"apple","pear","Stomach Ache","2016_Oct_26_1419"
19,1,1,2,"BY",1,6.28198725428,"orange","strawberry","Stomach Ache","2016_Oct_26_1419"
19,1,1,3,"CY",0,2.53199759545,"banana","orange","No Stomach Ache","2016_Oct_26_1419"
19,1,1,4,"CY",0,2.62837836356,"orange","banana","No Stomach Ache","2016_Oct_26_1419"
19,1,1,5,"AX",1,2.8756325515,"pear","apple","Stomach Ache","2016_Oct_26_1419"
19,1,1,6,"BY",1,1.63980231085,"strawberry","orange","Stomach Ache","2016_Oct_26_1419"
19,1,1,7,"A",0,2.62554041529,"","pear","Stomach Ache","2016_Oct_26_1419"
19,1,1,8,"A",1,2.65673078923,"pear","","Stomach Ache","2016_Oct_26_1419"
19,1,2,9,"AX",1,1.31288465858,"pear","apple","Stomach Ache","2016_Oct_26_1419"
19,1,2,10,"CY",0,1.34412510484,"orange","banana","No Stomach Ache","2016_Oct_26_1419"
19,1,2,11,"A",1,0.655432019848,"pear","","Stomach Ache","2016_Oct_26_1419"
19,1,2,12,"BY",0,2.70363049,"strawberry","orange","Stomach Ache","2016_Oct_26_1419"
19,1,2,13,"CY",0,2.95353104523,"banana","orange","No Stomach Ache","2016_Oct_26_1419"
19,1,2,14,"A",1,0.906939242268,"","pear","Stomach Ache","2016_Oct_26_1419"
19,1,2,15,"AX",1,1.90862863814,"apple","pear","Stomach Ache","2016_Oct_26_1419"
19,1,2,16,"BY",0,2.00049947901,"orange","strawberry","Stomach Ache","2016_Oct_26_1419"
19,1,3,17,"CY",0,1.40810412308,"orange","banana","No Stomach Ache","2016_Oct_26_1419"
19,1,3,18,"AX",1,1.03192590806,"apple","pear","Stomach Ache","2016_Oct_26_1419"
19,1,3,19,"A",1,4.18841333361,"","pear","Stomach Ache","2016_Oct_26_1419"
19,1,3,20,"BY",1,1.87143052206,"orange","strawberry","Stomach Ache","2016_Oct_26_1419"
19,1,3,21,"AX",1,0.785234955605,"pear","apple","Stomach Ache","2016_Oct_26_1419"
19,1,3,22,"A",1,0.625514912652,"pear","","Stomach Ache","2016_Oct_26_1419"
19,1,3,23,"CY",1,2.25162229571,"banana","orange","No Stomach Ache","2016_Oct_26_1419"
19,1,3,24,"BY",0,1.73772536824,"strawberry","orange","Stomach Ache","2016_Oct_26_1419"
19,1,4,25,"BY",0,2.15735669294,"orange","strawberry","Stomach Ache","2016_Oct_26_1419"
19,1,4,26,"AX",1,1.22056845436,"apple","pear","Stomach Ache","2016_Oct_26_1419"
19,1,4,27,"A",1,0.778564144392,"","pear","Stomach Ache","2016_Oct_26_1419"
19,1,4,28,"A",1,0.594169034623,"pear","","Stomach Ache","2016_Oct_26_1419"
19,1,4,29,"BY",1,1.5666302063,"strawberry","orange","Stomach Ache","2016_Oct_26_1419"
19,1,4,30,"AX",1,0.690767508699,"pear","apple","Stomach Ache","2016_Oct_26_1419"
19,1,4,31,"CY",0,0.969162309309,"orange","banana","No Stomach Ache","2016_Oct_26_1419"
19,1,4,32,"CY",0,1.5006787749,"banana","orange","No Stomach Ache","2016_Oct_26_1419"
20,1,1,1,"CY",1,8.81334145274,"banana","apple","No Stomach Ache","2016_Oct_26_1429"
20,1,1,2,"A",0,7.52901786333,"","orange","Stomach Ache","2016_Oct_26_1429"
20,1,1,3,"BY",0,2.65576157114,"banana","pear","Stomach Ache","2016_Oct_26_1429"
20,1,1,4,"AX",1,5.20403303299,"orange","strawberry","Stomach Ache","2016_Oct_26_1429"
20,1,1,5,"AX",1,1.87553349603,"strawberry","orange","Stomach Ache","2016_Oct_26_1429"
20,1,1,6,"CY",0,2.37793836882,"apple","banana","No Stomach Ache","2016_Oct_26_1429"
20,1,1,7,"BY",1,1.18983052229,"pear","banana","Stomach Ache","2016_Oct_26_1429"
20,1,1,8,"A",1,0.844264709158,"orange","","Stomach Ache","2016_Oct_26_1429"
20,1,2,9,"CY",0,1.43768495275,"banana","apple","No Stomach Ache","2016_Oct_26_1429"
20,1,2,10,"AX",1,2.78183194529,"strawberry","orange","Stomach Ache","2016_Oct_26_1429"
20,1,2,11,"A",1,2.50051674037,"orange","","Stomach Ache","2016_Oct_26_1429"
20,1,2,12,"A",1,0.810879510129,"","orange","Stomach Ache","2016_Oct_26_1429"
20,1,2,13,"AX",1,0.688982246676,"orange","strawberry","Stomach Ache","2016_Oct_26_1429"
20,1,2,14,"BY",1,0.812858767807,"banana","pear","Stomach Ache","2016_Oct_26_1429"
20,1,2,15,"CY",0,1.53139583371,"apple","banana","No Stomach Ache","2016_Oct_26_1429"
20,1,2,16,"BY",1,0.781595267821,"pear","banana","Stomach Ache","2016_Oct_26_1429"
20,1,3,17,"A",1,0.844185401918,"orange","","Stomach Ache","2016_Oct_26_1429"
20,1,3,18,"BY",1,1.43792691757,"banana","pear","Stomach Ache","2016_Oct_26_1429"
20,1,3,19,"BY",1,0.846312699839,"pear","banana","Stomach Ache","2016_Oct_26_1429"
20,1,3,20,"CY",0,1.09433538583,"banana","apple","No Stomach Ache","2016_Oct_26_1429"
20,1,3,21,"CY",0,1.45529113966,"apple","banana","No Stomach Ache","2016_Oct_26_1429"
20,1,3,22,"AX",1,0.657044480555,"orange","strawberry","Stomach Ache","2016_Oct_26_1429"
20,1,3,23,"A",1,0.781774097821,"","orange","Stomach Ache","2016_Oct_26_1429"
20,1,3,24,"AX",1,4.06334464066,"strawberry","orange","Stomach Ache","2016_Oct_26_1429"
20,1,4,25,"CY",0,1.00232572109,"apple","banana","No Stomach Ache","2016_Oct_26_1429"
20,1,4,26,"A",1,0.563039385714,"orange","","Stomach Ache","2016_Oct_26_1429"
20,1,4,27,"BY",1,1.01607042714,"banana","pear","Stomach Ache","2016_Oct_26_1429"
20,1,4,28,"AX",1,0.719382386887,"orange","strawberry","Stomach Ache","2016_Oct_26_1429"
20,1,4,29,"AX",1,0.625740860822,"strawberry","orange","Stomach Ache","2016_Oct_26_1429"
20,1,4,30,"A",1,0.563101276523,"","orange","Stomach Ache","2016_Oct_26_1429"
20,1,4,31,"BY",1,1.03374565812,"pear","banana","Stomach Ache","2016_Oct_26_1429"
20,1,4,32,"CY",0,1.09414691478,"banana","apple","No Stomach Ache","2016_Oct_26_1429"
21,1,1,1,"AX",0,8.39180294774,"orange","strawberry","Stomach Ache","2016_Oct_26_1440"
21,1,1,2,"BY",0,4.21925911028,"pear","banana","Stomach Ache","2016_Oct_26_1440"
21,1,1,3,"BY",1,2.93801267748,"banana","pear","Stomach Ache","2016_Oct_26_1440"
21,1,1,4,"CY",1,4.00050321082,"pear","apple","No Stomach Ache","2016_Oct_26_1440"
21,1,1,5,"AX",1,5.00065933703,"strawberry","orange","Stomach Ache","2016_Oct_26_1440"
21,1,1,6,"CY",0,3.6255099366,"apple","pear","No Stomach Ache","2016_Oct_26_1440"
21,1,1,7,"A",0,2.70640530391,"orange","","Stomach Ache","2016_Oct_26_1440"
21,1,1,8,"A",1,2.64812457492,"","orange","Stomach Ache","2016_Oct_26_1440"
21,1,2,9,"BY",1,3.1567583133,"pear","banana","Stomach Ache","2016_Oct_26_1440"
21,1,2,10,"CY",0,1.65673327725,"apple","pear","No Stomach Ache","2016_Oct_26_1440"
21,1,2,11,"A",1,1.44028972252,"","orange","Stomach Ache","2016_Oct_26_1440"
21,1,2,12,"CY",0,2.15680962987,"pear","apple","No Stomach Ache","2016_Oct_26_1440"
21,1,2,13,"AX",1,2.03362432285,"orange","strawberry","Stomach Ache","2016_Oct_26_1440"
21,1,2,14,"BY",0,1.71919582039,"banana","pear","Stomach Ache","2016_Oct_26_1440"
21,1,2,15,"A",1,2.40728368377,"orange","","Stomach Ache","2016_Oct_26_1440"
21,1,2,16,"AX",1,1.87261266331,"strawberry","orange","Stomach Ache","2016_Oct_26_1440"
21,1,3,17,"A",1,1.78198150056,"orange","","Stomach Ache","2016_Oct_26_1440"
21,1,3,18,"BY",0,1.34420752199,"banana","pear","Stomach Ache","2016_Oct_26_1440"
21,1,3,19,"CY",0,2.09450632287,"pear","apple","No Stomach Ache","2016_Oct_26_1440"
21,1,3,20,"AX",0,1.72031016205,"orange","strawberry","Stomach Ache","2016_Oct_26_1440"
21,1,3,21,"AX",1,1.59418893931,"strawberry","orange","Stomach Ache","2016_Oct_26_1440"
21,1,3,22,"CY",0,1.4379705356,"apple","pear","No Stomach Ache","2016_Oct_26_1440"
21,1,3,23,"A",1,1.18801275501,"","orange","Stomach Ache","2016_Oct_26_1440"
21,1,3,24,"BY",1,1.96925094654,"pear","banana","Stomach Ache","2016_Oct_26_1440"
21,1,4,25,"CY",0,1.06305159233,"pear","apple","No Stomach Ache","2016_Oct_26_1440"
21,1,4,26,"A",1,1.3445452766,"","orange","Stomach Ache","2016_Oct_26_1440"
21,1,4,27,"CY",0,1.4691910774,"apple","pear","No Stomach Ache","2016_Oct_26_1440"
21,1,4,28,"AX",1,2.41023017396,"strawberry","orange","Stomach Ache","2016_Oct_26_1440"
21,1,4,29,"BY",1,1.34416584694,"pear","banana","Stomach Ache","2016_Oct_26_1440"
21,1,4,30,"A",1,0.844559427584,"orange","","Stomach Ache","2016_Oct_26_1440"
21,1,4,31,"BY",1,1.5942698014,"banana","pear","Stomach Ache","2016_Oct_26_1440"
21,1,4,32,"AX",1,1.84378315159,"orange","strawberry","Stomach Ache","2016_Oct_26_1440"
22,1,1,1,"AX",0,5.06390538882,"apple","strawberry","Stomach Ache","2016_Oct_26_1449"
22,1,1,2,"A",1,2.21921739704,"","strawberry","Stomach Ache","2016_Oct_26_1449"
22,1,1,3,"CY",0,1.56221832358,"orange","banana","No Stomach Ache","2016_Oct_26_1449"
22,1,1,4,"BY",0,2.79714071308,"pear","banana","Stomach Ache","2016_Oct_26_1449"
22,1,1,5,"AX",1,1.75177204818,"strawberry","apple","Stomach Ache","2016_Oct_26_1449"
22,1,1,6,"A",1,1.25011919416,"strawberry","","Stomach Ache","2016_Oct_26_1449"
22,1,1,7,"BY",1,1.44101056596,"banana","pear","Stomach Ache","2016_Oct_26_1449"
22,1,1,8,"CY",0,1.71939793741,"banana","orange","No Stomach Ache","2016_Oct_26_1449"
22,1,2,9,"AX",1,1.44160925713,"strawberry","apple","Stomach Ache","2016_Oct_26_1449"
22,1,2,10,"A",1,1.50041628466,"","strawberry","Stomach Ache","2016_Oct_26_1449"
22,1,2,11,"A",1,1.72213885467,"strawberry","","Stomach Ache","2016_Oct_26_1449"
22,1,2,12,"AX",1,1.94115440734,"apple","strawberry","Stomach Ache","2016_Oct_26_1449"
22,1,2,13,"BY",1,1.40713739442,"banana","pear","Stomach Ache","2016_Oct_26_1449"
22,1,2,14,"BY",1,0.720624243608,"pear","banana","Stomach Ache","2016_Oct_26_1449"
22,1,2,15,"CY",0,1.37537908019,"banana","orange","No Stomach Ache","2016_Oct_26_1449"
22,1,2,16,"CY",0,1.21922672726,"orange","banana","No Stomach Ache","2016_Oct_26_1449"
22,1,3,17,"AX",1,1.12554103811,"apple","strawberry","Stomach Ache","2016_Oct_26_1449"
22,1,3,18,"A",1,0.719190805685,"strawberry","","Stomach Ache","2016_Oct_26_1449"
22,1,3,19,"BY",1,1.12894067098,"banana","pear","Stomach Ache","2016_Oct_26_1449"
22,1,3,20,"BY",1,0.844242316671,"pear","banana","Stomach Ache","2016_Oct_26_1449"
22,1,3,21,"A",1,0.656656964216,"","strawberry","Stomach Ache","2016_Oct_26_1449"
22,1,3,22,"CY",0,1.31413934496,"orange","banana","No Stomach Ache","2016_Oct_26_1449"
22,1,3,23,"AX",1,1.20458818274,"strawberry","apple","Stomach Ache","2016_Oct_26_1449"
22,1,3,24,"CY",0,2.60962658143,"banana","orange","No Stomach Ache","2016_Oct_26_1449"
22,1,4,25,"A",1,0.969151385594,"","strawberry","Stomach Ache","2016_Oct_26_1449"
22,1,4,26,"CY",0,0.969436580315,"banana","orange","No Stomach Ache","2016_Oct_26_1449"
22,1,4,27,"AX",1,0.656693352386,"apple","strawberry","Stomach Ache","2016_Oct_26_1449"
22,1,4,28,"CY",0,1.03175582597,"orange","banana","No Stomach Ache","2016_Oct_26_1449"
22,1,4,29,"AX",1,0.655929204542,"strawberry","apple","Stomach Ache","2016_Oct_26_1449"
22,1,4,30,"A",1,0.597627876559,"strawberry","","Stomach Ache","2016_Oct_26_1449"
22,1,4,31,"BY",1,0.843958677026,"banana","pear","Stomach Ache","2016_Oct_26_1449"
22,1,4,32,"BY",1,0.812954247231,"pear","banana","Stomach Ache","2016_Oct_26_1449"
23,1,1,1,"CY",0,19.3298361516,"banana","apple","No Stomach Ache","2016_Oct_26_1531"
23,1,1,2,"AX",0,5.31324978196,"pear","strawberry","Stomach Ache","2016_Oct_26_1531"
23,1,1,3,"BY",0,5.28406261094,"apple","orange","Stomach Ache","2016_Oct_26_1531"
23,1,1,4,"BY",1,4.09466120484,"orange","apple","Stomach Ache","2016_Oct_26_1531"
23,1,1,5,"A",0,4.12477486907,"pear","","Stomach Ache","2016_Oct_26_1531"
23,1,1,6,"AX",1,3.65694414079,"strawberry","pear","Stomach Ache","2016_Oct_26_1531"
23,1,1,7,"CY",0,2.75057777506,"apple","banana","No Stomach Ache","2016_Oct_26_1531"
23,1,1,8,"A",1,3.84436442563,"","pear","Stomach Ache","2016_Oct_26_1531"
23,1,2,9,"A",1,4.71775865229,"pear","","Stomach Ache","2016_Oct_26_1531"
23,1,2,10,"CY",0,2.37550146156,"apple","banana","No Stomach Ache","2016_Oct_26_1531"
23,1,2,11,"AX",1,3.37568122428,"pear","strawberry","Stomach Ache","2016_Oct_26_1531"
23,1,2,12,"CY",0,3.00055514951,"banana","apple","No Stomach Ache","2016_Oct_26_1531"
23,1,2,13,"A",1,2.25049831253,"","pear","Stomach Ache","2016_Oct_26_1531"
23,1,2,14,"BY",1,2.65650655236,"apple","orange","Stomach Ache","2016_Oct_26_1531"
23,1,2,15,"BY",1,2.09520111489,"orange","apple","Stomach Ache","2016_Oct_26_1531"
23,1,2,16,"AX",1,2.72094244161,"strawberry","pear","Stomach Ache","2016_Oct_26_1531"
23,1,3,17,"AX",1,2.12251695083,"strawberry","pear","Stomach Ache","2016_Oct_26_1531"
23,1,3,18,"A",1,1.31382639101,"","pear","Stomach Ache","2016_Oct_26_1531"
23,1,3,19,"A",1,1.09130045213,"pear","","Stomach Ache","2016_Oct_26_1531"
23,1,3,20,"CY",0,2.00046806713,"apple","banana","No Stomach Ache","2016_Oct_26_1531"
23,1,3,21,"CY",0,0.96896233107,"banana","apple","No Stomach Ache","2016_Oct_26_1531"
23,1,3,22,"BY",1,2.15681989305,"orange","apple","Stomach Ache","2016_Oct_26_1531"
23,1,3,23,"AX",1,2.37906716857,"pear","strawberry","Stomach Ache","2016_Oct_26_1531"
23,1,3,24,"BY",1,1.96926276479,"apple","orange","Stomach Ache","2016_Oct_26_1531"
23,1,4,25,"CY",0,1.62571955589,"banana","apple","No Stomach Ache","2016_Oct_26_1531"
23,1,4,26,"A",1,4.26937650051,"","pear","Stomach Ache","2016_Oct_26_1531"
23,1,4,27,"AX",1,1.5004977684,"strawberry","pear","Stomach Ache","2016_Oct_26_1531"
23,1,4,28,"CY",0,1.09415270691,"apple","banana","No Stomach Ache","2016_Oct_26_1531"
23,1,4,29,"BY",1,2.46934782551,"apple","orange","Stomach Ache","2016_Oct_26_1531"
23,1,4,30,"A",1,1.90674486244,"pear","","Stomach Ache","2016_Oct_26_1531"
23,1,4,31,"AX",1,2.39335363382,"pear","strawberry","Stomach Ache","2016_Oct_26_1531"
23,1,4,32,"BY",1,1.21919690864,"orange","apple","Stomach Ache","2016_Oct_26_1531"
24,1,1,1,"BY",1,10.0644316149,"banana","pear","Stomach Ache","2016_Oct_26_1540"
24,1,1,2,"A",0,3.96935478505,"","apple","Stomach Ache","2016_Oct_26_1540"
24,1,1,3,"CY",0,10.1260094168,"banana","orange","No Stomach Ache","2016_Oct_26_1540"
24,1,1,4,"A",1,6.50071889604,"apple","","Stomach Ache","2016_Oct_26_1540"
24,1,1,5,"CY",1,5.01619762974,"orange","banana","No Stomach Ache","2016_Oct_26_1540"
24,1,1,6,"AX",1,4.09439976467,"strawberry","apple","Stomach Ache","2016_Oct_26_1540"
24,1,1,7,"AX",1,2.5785403566,"apple","strawberry","Stomach Ache","2016_Oct_26_1540"
24,1,1,8,"BY",1,4.31287167454,"pear","banana","Stomach Ache","2016_Oct_26_1540"
24,1,2,9,"CY",0,5.98529054574,"orange","banana","No Stomach Ache","2016_Oct_26_1540"
24,1,2,10,"BY",1,2.21889208211,"pear","banana","Stomach Ache","2016_Oct_26_1540"
24,1,2,11,"BY",1,2.56328197219,"banana","pear","Stomach Ache","2016_Oct_26_1540"
24,1,2,12,"AX",1,1.2351117935,"strawberry","apple","Stomach Ache","2016_Oct_26_1540"
24,1,2,13,"A",1,1.15640240395,"apple","","Stomach Ache","2016_Oct_26_1540"
24,1,2,14,"AX",1,1.43791198893,"apple","strawberry","Stomach Ache","2016_Oct_26_1540"
24,1,2,15,"CY",0,2.23499329924,"banana","orange","No Stomach Ache","2016_Oct_26_1540"
24,1,2,16,"A",1,0.906658907887,"","apple","Stomach Ache","2016_Oct_26_1540"
24,1,3,17,"A",1,0.625863398192,"apple","","Stomach Ache","2016_Oct_26_1540"
24,1,3,18,"BY",1,1.75365364901,"banana","pear","Stomach Ache","2016_Oct_26_1540"
24,1,3,19,"BY",1,0.907709494466,"pear","banana","Stomach Ache","2016_Oct_26_1540"
24,1,3,20,"CY",0,1.04750902462,"orange","banana","No Stomach Ache","2016_Oct_26_1540"
24,1,3,21,"CY",0,0.844372007297,"banana","orange","No Stomach Ache","2016_Oct_26_1540"
24,1,3,22,"AX",1,0.656652921112,"apple","strawberry","Stomach Ache","2016_Oct_26_1540"
24,1,3,23,"AX",1,1.09426323208,"strawberry","apple","Stomach Ache","2016_Oct_26_1540"
24,1,3,24,"A",1,1.4066771022,"","apple","Stomach Ache","2016_Oct_26_1540"
24,1,4,25,"CY",0,1.03449923126,"orange","banana","No Stomach Ache","2016_Oct_26_1540"
24,1,4,26,"A",1,1.15650970186,"apple","","Stomach Ache","2016_Oct_26_1540"
24,1,4,27,"AX",1,0.670652654255,"strawberry","apple","Stomach Ache","2016_Oct_26_1540"
24,1,4,28,"CY",0,1.89133179095,"banana","orange","No Stomach Ache","2016_Oct_26_1540"
24,1,4,29,"BY",1,1.78179742326,"banana","pear","Stomach Ache","2016_Oct_26_1540"
24,1,4,30,"AX",1,0.609785506967,"apple","strawberry","Stomach Ache","2016_Oct_26_1540"
24,1,4,31,"BY",1,0.797247077804,"pear","banana","Stomach Ache","2016_Oct_26_1540"
24,1,4,32,"A",1,0.596890786663,"","apple","Stomach Ache","2016_Oct_26_1540"
25,1,1,1,"AX",1,7.13387403125,"strawberry","orange","Stomach Ache","2016_Oct_26_1604"
25,1,1,2,"A",1,3.0002049543,"","orange","Stomach Ache","2016_Oct_26_1604"
25,1,1,3,"AX",1,4.00100113498,"orange","strawberry","Stomach Ache","2016_Oct_26_1604"
25,1,1,4,"CY",0,4.96968293656,"banana","apple","No Stomach Ache","2016_Oct_26_1604"
25,1,1,5,"BY",0,2.65680480935,"banana","pear","Stomach Ache","2016_Oct_26_1604"
25,1,1,6,"CY",0,4.59432298364,"apple","banana","No Stomach Ache","2016_Oct_26_1604"
25,1,1,7,"BY",1,2.56619697181,"pear","banana","Stomach Ache","2016_Oct_26_1604"
25,1,1,8,"A",1,2.7817830774,"orange","","Stomach Ache","2016_Oct_26_1604"
25,1,2,9,"A",1,2.53203336126,"","orange","Stomach Ache","2016_Oct_26_1604"
25,1,2,10,"CY",0,2.21891669068,"apple","banana","No Stomach Ache","2016_Oct_26_1604"
25,1,2,11,"A",1,1.12575920951,"orange","","Stomach Ache","2016_Oct_26_1604"
25,1,2,12,"AX",1,6.21976045519,"orange","strawberry","Stomach Ache","2016_Oct_26_1604"
25,1,2,13,"BY",1,2.03170913528,"pear","banana","Stomach Ache","2016_Oct_26_1604"
25,1,2,14,"AX",1,1.65668818098,"strawberry","orange","Stomach Ache","2016_Oct_26_1604"
25,1,2,15,"CY",0,1.21920468402,"banana","apple","No Stomach Ache","2016_Oct_26_1604"
25,1,2,16,"BY",1,1.3463320178,"banana","pear","Stomach Ache","2016_Oct_26_1604"
25,1,3,17,"BY",1,1.25057202158,"banana","pear","Stomach Ache","2016_Oct_26_1604"
25,1,3,18,"CY",0,1.59415908251,"banana","apple","No Stomach Ache","2016_Oct_26_1604"
25,1,3,19,"CY",0,4.32866458432,"apple","banana","No Stomach Ache","2016_Oct_26_1604"
25,1,3,20,"A",1,1.21921214811,"","orange","Stomach Ache","2016_Oct_26_1604"
25,1,3,21,"A",1,1.56326572131,"orange","","Stomach Ache","2016_Oct_26_1604"
25,1,3,22,"BY",1,1.43785297475,"pear","banana","Stomach Ache","2016_Oct_26_1604"
25,1,3,23,"AX",1,1.06441847235,"orange","strawberry","Stomach Ache","2016_Oct_26_1604"
25,1,3,24,"AX",1,4.34446006035,"strawberry","orange","Stomach Ache","2016_Oct_26_1604"
25,1,4,25,"CY",0,1.84694703645,"apple","banana","No Stomach Ache","2016_Oct_26_1604"
25,1,4,26,"A",1,2.1896984186,"","orange","Stomach Ache","2016_Oct_26_1604"
25,1,4,27,"AX",1,3.17542439373,"strawberry","orange","Stomach Ache","2016_Oct_26_1604"
25,1,4,28,"BY",1,1.62536158576,"banana","pear","Stomach Ache","2016_Oct_26_1604"
25,1,4,29,"A",1,2.2817658165,"orange","","Stomach Ache","2016_Oct_26_1604"
25,1,4,30,"BY",1,1.29809933668,"pear","banana","Stomach Ache","2016_Oct_26_1604"
25,1,4,31,"AX",1,1.09060006216,"orange","strawberry","Stomach Ache","2016_Oct_26_1604"
25,1,4,32,"CY",0,1.31331322761,"banana","apple","No Stomach Ache","2016_Oct_26_1604"
26,1,1,1,"BY",1,8.09284534445,"strawberry","pear","Stomach Ache","2016_Oct_26_1613"
26,1,1,2,"BY",1,3.21932998206,"pear","strawberry","Stomach Ache","2016_Oct_26_1613"
26,1,1,3,"AX",0,1.50070396741,"orange","banana","Stomach Ache","2016_Oct_26_1613"
26,1,1,4,"CY",0,1.62545317831,"pear","apple","No Stomach Ache","2016_Oct_26_1613"
26,1,1,5,"A",0,1.90676931594,"orange","","Stomach Ache","2016_Oct_26_1613"
26,1,1,6,"CY",0,1.62827278045,"apple","pear","No Stomach Ache","2016_Oct_26_1613"
26,1,1,7,"A",1,1.68939371081,"","orange","Stomach Ache","2016_Oct_26_1613"
26,1,1,8,"AX",0,2.28171796072,"banana","orange","Stomach Ache","2016_Oct_26_1613"
26,1,2,9,"BY",1,1.71952762804,"pear","strawberry","Stomach Ache","2016_Oct_26_1613"
26,1,2,10,"CY",0,2.16021598922,"apple","pear","No Stomach Ache","2016_Oct_26_1613"
26,1,2,11,"A",1,0.875722278142,"","orange","Stomach Ache","2016_Oct_26_1613"
26,1,2,12,"AX",1,1.37398389657,"banana","orange","Stomach Ache","2016_Oct_26_1613"
26,1,2,13,"BY",1,2.50057427725,"strawberry","pear","Stomach Ache","2016_Oct_26_1613"
26,1,2,14,"A",1,0.750442176359,"orange","","Stomach Ache","2016_Oct_26_1613"
26,1,2,15,"AX",1,1.31300354213,"orange","banana","Stomach Ache","2016_Oct_26_1613"
26,1,2,16,"CY",0,0.719221906504,"pear","apple","No Stomach Ache","2016_Oct_26_1613"
26,1,3,17,"A",1,0.781656847568,"orange","","Stomach Ache","2016_Oct_26_1613"
26,1,3,18,"BY",1,1.12540108431,"pear","strawberry","Stomach Ache","2016_Oct_26_1613"
26,1,3,19,"AX",1,0.750422893558,"banana","orange","Stomach Ache","2016_Oct_26_1613"
26,1,3,20,"A",1,0.719399803551,"","orange","Stomach Ache","2016_Oct_26_1613"
26,1,3,21,"CY",0,0.969227271387,"apple","pear","No Stomach Ache","2016_Oct_26_1613"
26,1,3,22,"BY",1,0.65678603272,"strawberry","pear","Stomach Ache","2016_Oct_26_1613"
26,1,3,23,"CY",0,1.09421098256,"pear","apple","No Stomach Ache","2016_Oct_26_1613"
26,1,3,24,"AX",1,0.656647322932,"orange","banana","Stomach Ache","2016_Oct_26_1613"
26,1,4,25,"AX",1,0.847367018228,"banana","orange","Stomach Ache","2016_Oct_26_1613"
26,1,4,26,"CY",0,0.844169851625,"apple","pear","No Stomach Ache","2016_Oct_26_1613"
26,1,4,27,"A",1,0.625455355272,"orange","","Stomach Ache","2016_Oct_26_1613"
26,1,4,28,"BY",1,0.781864601187,"strawberry","pear","Stomach Ache","2016_Oct_26_1613"
26,1,4,29,"A",1,0.719150996767,"","orange","Stomach Ache","2016_Oct_26_1613"
26,1,4,30,"BY",1,2.43499597395,"pear","strawberry","Stomach Ache","2016_Oct_26_1613"
26,1,4,31,"AX",1,0.562886680709,"orange","banana","Stomach Ache","2016_Oct_26_1613"
26,1,4,32,"CY",0,1.00149563956,"pear","apple","No Stomach Ache","2016_Oct_26_1613"
27,1,1,1,"AX",0,13.7201894911,"orange","apple","Stomach Ache","2016_Oct_27_1111"
27,1,1,2,"BY",0,3.68811212224,"strawberry","pear","Stomach Ache","2016_Oct_27_1111"
27,1,1,3,"CY",1,3.0317809782,"banana","strawberry","No Stomach Ache","2016_Oct_27_1111"
27,1,1,4,"BY",1,2.25026443461,"pear","strawberry","Stomach Ache","2016_Oct_27_1111"
27,1,1,5,"CY",1,1.87485036626,"strawberry","banana","No Stomach Ache","2016_Oct_27_1111"
27,1,1,6,"AX",1,2.379037312,"apple","orange","Stomach Ache","2016_Oct_27_1111"
27,1,1,7,"A",1,1.68696263642,"","orange","Stomach Ache","2016_Oct_27_1111"
27,1,1,8,"A",1,0.71701534302,"orange","","Stomach Ache","2016_Oct_27_1111"
27,1,2,9,"A",1,0.590962541755,"orange","","Stomach Ache","2016_Oct_27_1111"
27,1,2,10,"BY",1,1.59593556053,"pear","strawberry","Stomach Ache","2016_Oct_27_1111"
27,1,2,11,"BY",1,1.03186961543,"strawberry","pear","Stomach Ache","2016_Oct_27_1111"
27,1,2,12,"CY",0,1.21916456404,"banana","strawberry","No Stomach Ache","2016_Oct_27_1111"
27,1,2,13,"AX",0,3.62765215989,"apple","orange","Stomach Ache","2016_Oct_27_1111"
27,1,2,14,"AX",1,2.12557820277,"orange","apple","Stomach Ache","2016_Oct_27_1111"
27,1,2,15,"CY",0,1.75026023597,"strawberry","banana","No Stomach Ache","2016_Oct_27_1111"
27,1,2,16,"A",0,3.23502846202,"","orange","Stomach Ache","2016_Oct_27_1111"
27,1,3,17,"CY",0,2.0629716632,"banana","strawberry","No Stomach Ache","2016_Oct_27_1111"
27,1,3,18,"BY",1,2.71900175139,"pear","strawberry","Stomach Ache","2016_Oct_27_1111"
27,1,3,19,"AX",1,1.1880889521,"apple","orange","Stomach Ache","2016_Oct_27_1111"
27,1,3,20,"BY",1,1.00066026999,"strawberry","pear","Stomach Ache","2016_Oct_27_1111"
27,1,3,21,"A",1,0.84415822709,"orange","","Stomach Ache","2016_Oct_27_1111"
27,1,3,22,"AX",1,0.875440037344,"orange","apple","Stomach Ache","2016_Oct_27_1111"
27,1,3,23,"CY",0,2.56533983373,"strawberry","banana","No Stomach Ache","2016_Oct_27_1111"
27,1,3,24,"A",1,0.750011429423,"","orange","Stomach Ache","2016_Oct_27_1111"
27,1,4,25,"AX",1,1.19100185344,"orange","apple","Stomach Ache","2016_Oct_27_1111"
27,1,4,26,"A",1,0.65665770229,"","orange","Stomach Ache","2016_Oct_27_1111"
27,1,4,27,"CY",0,1.1566118286,"banana","strawberry","No Stomach Ache","2016_Oct_27_1111"
27,1,4,28,"AX",1,0.719084790442,"apple","orange","Stomach Ache","2016_Oct_27_1111"
27,1,4,29,"BY",1,1.65652427985,"pear","strawberry","Stomach Ache","2016_Oct_27_1111"
27,1,4,30,"BY",1,0.564376952825,"strawberry","pear","Stomach Ache","2016_Oct_27_1111"
27,1,4,31,"A",1,0.716974289855,"orange","","Stomach Ache","2016_Oct_27_1111"
27,1,4,32,"CY",0,1.04726326908,"strawberry","banana","No Stomach Ache","2016_Oct_27_1111"
28,1,1,1,"AX",0,8.98382258578,"apple","orange","Stomach Ache","2016_Oct_27_1120"
28,1,1,2,"A",0,4.50063492381,"","orange","Stomach Ache","2016_Oct_27_1120"
28,1,1,3,"BY",1,3.40803092183,"banana","pear","Stomach Ache","2016_Oct_27_1120"
28,1,1,4,"A",1,5.15361296944,"orange","","Stomach Ache","2016_Oct_27_1120"
28,1,1,5,"CY",1,1.81287805014,"pear","strawberry","No Stomach Ache","2016_Oct_27_1120"
28,1,1,6,"AX",1,1.78193240101,"orange","apple","Stomach Ache","2016_Oct_27_1120"
28,1,1,7,"BY",1,1.15672274237,"pear","banana","Stomach Ache","2016_Oct_27_1120"
28,1,1,8,"CY",0,0.845184361329,"strawberry","pear","No Stomach Ache","2016_Oct_27_1120"
28,1,2,9,"AX",0,4.32875829586,"apple","orange","Stomach Ache","2016_Oct_27_1120"
28,1,2,10,"BY",0,1.37895692117,"banana","pear","Stomach Ache","2016_Oct_27_1120"
28,1,2,11,"A",1,0.940143940737,"orange","","Stomach Ache","2016_Oct_27_1120"
28,1,2,12,"AX",0,1.09421658074,"orange","apple","Stomach Ache","2016_Oct_27_1120"
28,1,2,13,"CY",0,1.61243654252,"pear","strawberry","No Stomach Ache","2016_Oct_27_1120"
28,1,2,14,"BY",1,0.750392725924,"pear","banana","Stomach Ache","2016_Oct_27_1120"
28,1,2,15,"CY",0,1.53172705765,"strawberry","pear","No Stomach Ache","2016_Oct_27_1120"
28,1,2,16,"A",1,0.718956305413,"","orange","Stomach Ache","2016_Oct_27_1120"
28,1,3,17,"CY",1,1.78187175444,"strawberry","pear","No Stomach Ache","2016_Oct_27_1120"
28,1,3,18,"BY",0,1.20605894178,"pear","banana","Stomach Ache","2016_Oct_27_1120"
28,1,3,19,"CY",0,5.36205827864,"pear","strawberry","No Stomach Ache","2016_Oct_27_1120"
28,1,3,20,"A",1,4.56675220421,"","orange","Stomach Ache","2016_Oct_27_1120"
28,1,3,21,"BY",1,1.65668215603,"banana","pear","Stomach Ache","2016_Oct_27_1120"
28,1,3,22,"AX",1,1.25222316594,"orange","apple","Stomach Ache","2016_Oct_27_1120"
28,1,3,23,"AX",1,0.594109127298,"apple","orange","Stomach Ache","2016_Oct_27_1120"
28,1,3,24,"A",1,0.750667035347,"orange","","Stomach Ache","2016_Oct_27_1120"
28,1,4,25,"AX",1,0.687987641664,"apple","orange","Stomach Ache","2016_Oct_27_1120"
28,1,4,26,"BY",1,1.25048836088,"pear","banana","Stomach Ache","2016_Oct_27_1120"
28,1,4,27,"CY",0,1.78188450588,"pear","strawberry","No Stomach Ache","2016_Oct_27_1120"
28,1,4,28,"BY",0,1.75040050107,"banana","pear","Stomach Ache","2016_Oct_27_1120"
28,1,4,29,"A",1,1.21919904742,"","orange","Stomach Ache","2016_Oct_27_1120"
28,1,4,30,"CY",0,0.906571203843,"strawberry","pear","No Stomach Ache","2016_Oct_27_1120"
28,1,4,31,"AX",1,2.65970764589,"orange","apple","Stomach Ache","2016_Oct_27_1120"
28,1,4,32,"A",1,0.750481674215,"orange","","Stomach Ache","2016_Oct_27_1120"
29,1,1,1,"BY",1,15.9958107218,"strawberry","banana","Stomach Ache","2016_Oct_27_1159"
29,1,1,2,"AX",1,13.3289575537,"pear","orange","Stomach Ache","2016_Oct_27_1159"
29,1,1,3,"A",1,1.84767479496,"orange","","Stomach Ache","2016_Oct_27_1159"
29,1,1,4,"BY",0,1.6908794716,"banana","strawberry","Stomach Ache","2016_Oct_27_1159"
29,1,1,5,"CY",1,1.06294460548,"banana","apple","No Stomach Ache","2016_Oct_27_1159"
29,1,1,6,"CY",0,1.92228189087,"apple","banana","No Stomach Ache","2016_Oct_27_1159"
29,1,1,7,"AX",1,1.00006282376,"orange","pear","Stomach Ache","2016_Oct_27_1159"
29,1,1,8,"A",1,1.50056214724,"","orange","Stomach Ache","2016_Oct_27_1159"
29,1,2,9,"AX",1,1.21939533204,"orange","pear","Stomach Ache","2016_Oct_27_1159"
29,1,2,10,"A",1,1.21744873258,"","orange","Stomach Ache","2016_Oct_27_1159"
29,1,2,11,"A",1,0.436087382026,"orange","","Stomach Ache","2016_Oct_27_1159"
29,1,2,12,"BY",1,1.93771006656,"banana","strawberry","Stomach Ache","2016_Oct_27_1159"
29,1,2,13,"AX",1,0.844345454127,"pear","orange","Stomach Ache","2016_Oct_27_1159"
29,1,2,14,"CY",0,0.531574313296,"banana","apple","No Stomach Ache","2016_Oct_27_1159"
29,1,2,15,"CY",0,0.597090022173,"apple","banana","No Stomach Ache","2016_Oct_27_1159"
29,1,2,16,"BY",1,0.562407961115,"strawberry","banana","Stomach Ache","2016_Oct_27_1159"
29,1,3,17,"CY",0,0.562667963794,"banana","apple","No Stomach Ache","2016_Oct_27_1159"
29,1,3,18,"CY",0,0.781394939637,"apple","banana","No Stomach Ache","2016_Oct_27_1159"
29,1,3,19,"AX",1,0.531696228543,"orange","pear","Stomach Ache","2016_Oct_27_1159"
29,1,3,20,"BY",1,1.43805388594,"strawberry","banana","Stomach Ache","2016_Oct_27_1159"
29,1,3,21,"A",1,0.410233594943,"orange","","Stomach Ache","2016_Oct_27_1159"
29,1,3,22,"AX",1,0.469272250542,"pear","orange","Stomach Ache","2016_Oct_27_1159"
29,1,3,23,"BY",1,0.531667926582,"banana","strawberry","Stomach Ache","2016_Oct_27_1159"
29,1,3,24,"A",1,0.531637137057,"","orange","Stomach Ache","2016_Oct_27_1159"
29,1,4,25,"BY",1,0.561616445426,"strawberry","banana","Stomach Ache","2016_Oct_27_1159"
29,1,4,26,"BY",1,0.500481284922,"banana","strawberry","Stomach Ache","2016_Oct_27_1159"
29,1,4,27,"A",1,0.500597912818,"","orange","Stomach Ache","2016_Oct_27_1159"
29,1,4,28,"AX",1,0.500667267712,"pear","orange","Stomach Ache","2016_Oct_27_1159"
29,1,4,29,"CY",0,0.59424243262,"banana","apple","No Stomach Ache","2016_Oct_27_1159"
29,1,4,30,"A",1,0.375365240034,"orange","","Stomach Ache","2016_Oct_27_1159"
29,1,4,31,"CY",0,0.594134201994,"apple","banana","No Stomach Ache","2016_Oct_27_1159"
29,1,4,32,"AX",1,0.406677529216,"orange","pear","Stomach Ache","2016_Oct_27_1159"
30,1,1,1,"CY",1,6.31432688306,"apple","orange","No Stomach Ache","2016_Oct_27_1205"
30,1,1,2,"AX",0,4.70392806735,"strawberry","pear","Stomach Ache","2016_Oct_27_1205"
30,1,1,3,"BY",0,2.40683385031,"orange","banana","Stomach Ache","2016_Oct_27_1205"
30,1,1,4,"A",0,3.12900287285,"pear","","Stomach Ache","2016_Oct_27_1205"
30,1,1,5,"BY",1,2.03199219238,"banana","orange","Stomach Ache","2016_Oct_27_1205"
30,1,1,6,"AX",1,1.23475164594,"pear","strawberry","Stomach Ache","2016_Oct_27_1205"
30,1,1,7,"A",1,1.50047257752,"","pear","Stomach Ache","2016_Oct_27_1205"
30,1,1,8,"CY",0,1.8756283538,"orange","apple","No Stomach Ache","2016_Oct_27_1205"
30,1,2,9,"A",1,1.063133155,"pear","","Stomach Ache","2016_Oct_27_1205"
30,1,2,10,"BY",1,3.26924963295,"orange","banana","Stomach Ache","2016_Oct_27_1205"
30,1,2,11,"A",1,1.50044707465,"","pear","Stomach Ache","2016_Oct_27_1205"
30,1,2,12,"BY",1,2.71917121229,"banana","orange","Stomach Ache","2016_Oct_27_1205"
30,1,2,13,"AX",1,2.09414380486,"pear","strawberry","Stomach Ache","2016_Oct_27_1205"
30,1,2,14,"AX",1,3.7358275794,"strawberry","pear","Stomach Ache","2016_Oct_27_1205"
30,1,2,15,"CY",0,2.43802115298,"orange","apple","No Stomach Ache","2016_Oct_27_1205"
30,1,2,16,"CY",0,2.5028421504,"apple","orange","No Stomach Ache","2016_Oct_27_1205"
30,1,3,17,"BY",1,2.56314699468,"orange","banana","Stomach Ache","2016_Oct_27_1205"
30,1,3,18,"A",1,4.27252921672,"","pear","Stomach Ache","2016_Oct_27_1205"
30,1,3,19,"CY",0,6.03185317176,"orange","apple","No Stomach Ache","2016_Oct_27_1205"
30,1,3,20,"CY",0,1.31291863672,"apple","orange","No Stomach Ache","2016_Oct_27_1205"
30,1,3,21,"AX",1,2.32902731793,"pear","strawberry","Stomach Ache","2016_Oct_27_1205"
30,1,3,22,"A",1,1.19053837727,"pear","","Stomach Ache","2016_Oct_27_1205"
30,1,3,23,"BY",1,3.28175217169,"banana","orange","Stomach Ache","2016_Oct_27_1205"
30,1,3,24,"AX",1,3.2814931015,"strawberry","pear","Stomach Ache","2016_Oct_27_1205"
30,1,4,25,"AX",1,0.816835632548,"pear","strawberry","Stomach Ache","2016_Oct_27_1205"
30,1,4,26,"BY",1,1.00035983673,"orange","banana","Stomach Ache","2016_Oct_27_1205"
30,1,4,27,"A",1,0.687974268338,"","pear","Stomach Ache","2016_Oct_27_1205"
30,1,4,28,"CY",0,1.12583929533,"apple","orange","No Stomach Ache","2016_Oct_27_1205"
30,1,4,29,"A",1,0.654521269491,"pear","","Stomach Ache","2016_Oct_27_1205"
30,1,4,30,"AX",1,0.84461272764,"strawberry","pear","Stomach Ache","2016_Oct_27_1205"
30,1,4,31,"CY",0,4.11193659646,"orange","apple","No Stomach Ache","2016_Oct_27_1205"
30,1,4,32,"BY",1,2.06678563775,"banana","orange","Stomach Ache","2016_Oct_27_1205"
31,1,1,1,"CY",0,11.0012462093,"pear","orange","No Stomach Ache","2016_Oct_27_1249"
31,1,1,2,"CY",0,9.18855328695,"orange","pear","No Stomach Ache","2016_Oct_27_1249"
31,1,1,3,"AX",1,1.71941103786,"strawberry","apple","Stomach Ache","2016_Oct_27_1249"
31,1,1,4,"BY",1,5.45384158683,"banana","orange","Stomach Ache","2016_Oct_27_1249"
31,1,1,5,"A",1,3.71928912285,"","apple","Stomach Ache","2016_Oct_27_1249"
31,1,1,6,"A",1,1.21950667282,"apple","","Stomach Ache","2016_Oct_27_1249"
31,1,1,7,"BY",0,1.43817455694,"orange","banana","Stomach Ache","2016_Oct_27_1249"
31,1,1,8,"AX",1,1.6879208521,"apple","strawberry","Stomach Ache","2016_Oct_27_1249"
31,1,2,9,"A",1,1.09413933358,"apple","","Stomach Ache","2016_Oct_27_1249"
31,1,2,10,"CY",0,2.78537459834,"pear","orange","No Stomach Ache","2016_Oct_27_1249"
31,1,2,11,"A",1,0.907112163026,"","apple","Stomach Ache","2016_Oct_27_1249"
31,1,2,12,"BY",0,2.31299817655,"banana","orange","Stomach Ache","2016_Oct_27_1249"
31,1,2,13,"AX",1,1.06304132892,"strawberry","apple","Stomach Ache","2016_Oct_27_1249"
31,1,2,14,"BY",1,1.00103876693,"orange","banana","Stomach Ache","2016_Oct_27_1249"
31,1,2,15,"AX",1,1.21909458726,"apple","strawberry","Stomach Ache","2016_Oct_27_1249"
31,1,2,16,"CY",1,1.75052956888,"orange","pear","No Stomach Ache","2016_Oct_27_1249"
31,1,3,17,"CY",0,1.281858186,"orange","pear","No Stomach Ache","2016_Oct_27_1249"
31,1,3,18,"A",1,1.11720586638,"apple","","Stomach Ache","2016_Oct_27_1249"
31,1,3,19,"BY",0,2.61553590884,"orange","banana","Stomach Ache","2016_Oct_27_1249"
31,1,3,20,"BY",1,1.18801057804,"banana","orange","Stomach Ache","2016_Oct_27_1249"
31,1,3,21,"AX",1,2.73732105759,"apple","strawberry","Stomach Ache","2016_Oct_27_1249"
31,1,3,22,"A",1,0.750148584135,"","apple","Stomach Ache","2016_Oct_27_1249"
31,1,3,23,"CY",0,2.03164879978,"pear","orange","No Stomach Ache","2016_Oct_27_1249"
31,1,3,24,"AX",1,0.750595813617,"strawberry","apple","Stomach Ache","2016_Oct_27_1249"
31,1,4,25,"A",1,0.622226935811,"apple","","Stomach Ache","2016_Oct_27_1249"
31,1,4,26,"A",1,0.625679435907,"","apple","Stomach Ache","2016_Oct_27_1249"
31,1,4,27,"AX",1,0.910275736591,"apple","strawberry","Stomach Ache","2016_Oct_27_1249"
31,1,4,28,"CY",0,2.69108971325,"pear","orange","No Stomach Ache","2016_Oct_27_1249"
31,1,4,29,"BY",1,3.75083684479,"banana","orange","Stomach Ache","2016_Oct_27_1249"
31,1,4,30,"CY",0,1.5185499189,"orange","pear","No Stomach Ache","2016_Oct_27_1249"
31,1,4,31,"BY",1,1.81318058283,"orange","banana","Stomach Ache","2016_Oct_27_1249"
31,1,4,32,"AX",1,0.655809272546,"strawberry","apple","Stomach Ache","2016_Oct_27_1249"
32,1,1,1,"BY",1,8.01635375572,"pear","orange","Stomach Ache","2016_Oct_27_1258"
32,1,1,2,"BY",0,4.37532340991,"orange","pear","Stomach Ache","2016_Oct_27_1258"
32,1,1,3,"CY",0,7.7197114341,"banana","orange","No Stomach Ache","2016_Oct_27_1258"
32,1,1,4,"A",1,1.12635712395,"","strawberry","Stomach Ache","2016_Oct_27_1258"
32,1,1,5,"CY",0,2.13940299442,"orange","banana","No Stomach Ache","2016_Oct_27_1258"
32,1,1,6,"AX",1,1.69106351514,"apple","strawberry","Stomach Ache","2016_Oct_27_1258"
32,1,1,7,"AX",1,0.96929040621,"strawberry","apple","Stomach Ache","2016_Oct_27_1258"
32,1,1,8,"A",1,0.625373871066,"strawberry","","Stomach Ache","2016_Oct_27_1258"
32,1,2,9,"BY",1,1.43770858948,"pear","orange","Stomach Ache","2016_Oct_27_1258"
32,1,2,10,"AX",1,0.640762878815,"apple","strawberry","Stomach Ache","2016_Oct_27_1258"
32,1,2,11,"A",1,0.656730051152,"","strawberry","Stomach Ache","2016_Oct_27_1258"
32,1,2,12,"BY",0,0.750153871486,"orange","pear","Stomach Ache","2016_Oct_27_1258"
32,1,2,13,"A",1,0.687983909855,"strawberry","","Stomach Ache","2016_Oct_27_1258"
32,1,2,14,"AX",1,0.531544495607,"strawberry","apple","Stomach Ache","2016_Oct_27_1258"
32,1,2,15,"CY",0,1.65698507801,"orange","banana","No Stomach Ache","2016_Oct_27_1258"
32,1,2,16,"CY",0,0.625458465191,"banana","orange","No Stomach Ache","2016_Oct_27_1258"
32,1,3,17,"A",1,0.440790371969,"strawberry","","Stomach Ache","2016_Oct_27_1258"
32,1,3,18,"CY",0,0.625673994189,"orange","banana","No Stomach Ache","2016_Oct_27_1258"
32,1,3,19,"BY",1,0.752034850186,"orange","pear","Stomach Ache","2016_Oct_27_1258"
32,1,3,20,"AX",1,0.406866817037,"strawberry","apple","Stomach Ache","2016_Oct_27_1258"
32,1,3,21,"A",1,0.535032766405,"","strawberry","Stomach Ache","2016_Oct_27_1258"
32,1,3,22,"AX",1,0.441168869147,"apple","strawberry","Stomach Ache","2016_Oct_27_1258"
32,1,3,23,"BY",1,0.812952381093,"pear","orange","Stomach Ache","2016_Oct_27_1258"
32,1,3,24,"CY",0,0.641275731614,"banana","orange","No Stomach Ache","2016_Oct_27_1258"
32,1,4,25,"A",1,0.50034755189,"strawberry","","Stomach Ache","2016_Oct_27_1258"
32,1,4,26,"AX",1,0.500374609604,"apple","strawberry","Stomach Ache","2016_Oct_27_1258"
32,1,4,27,"CY",0,0.535117671592,"orange","banana","No Stomach Ache","2016_Oct_27_1258"
32,1,4,28,"A",1,0.500445519574,"","strawberry","Stomach Ache","2016_Oct_27_1258"
32,1,4,29,"CY",1,0.937820086023,"banana","orange","No Stomach Ache","2016_Oct_27_1258"
32,1,4,30,"AX",1,0.438007779419,"strawberry","apple","Stomach Ache","2016_Oct_27_1258"
32,1,4,31,"BY",1,0.563122114167,"orange","pear","Stomach Ache","2016_Oct_27_1258"
32,1,4,32,"BY",1,0.565923988819,"pear","orange","Stomach Ache","2016_Oct_27_1258"
33,1,1,1,"A",0,12.3318063875,"","apple","Stomach Ache","2016_Oct_27_1332"
33,1,1,2,"BY",1,7.84593003988,"orange","banana","Stomach Ache","2016_Oct_27_1332"
33,1,1,3,"AX",1,3.87580547202,"apple","strawberry","Stomach Ache","2016_Oct_27_1332"
33,1,1,4,"AX",1,3.54643210024,"strawberry","apple","Stomach Ache","2016_Oct_27_1332"
33,1,1,5,"CY",1,3.15709015913,"pear","banana","No Stomach Ache","2016_Oct_27_1332"
33,1,1,6,"CY",0,3.29743066942,"banana","pear","No Stomach Ache","2016_Oct_27_1332"
33,1,1,7,"A",1,2.00069354777,"apple","","Stomach Ache","2016_Oct_27_1332"
33,1,1,8,"BY",1,1.90661299508,"banana","orange","Stomach Ache","2016_Oct_27_1332"
33,1,2,9,"CY",0,3.21929798648,"banana","pear","No Stomach Ache","2016_Oct_27_1332"
33,1,2,10,"BY",1,2.84442507196,"banana","orange","Stomach Ache","2016_Oct_27_1332"
33,1,2,11,"AX",1,1.75086639053,"strawberry","apple","Stomach Ache","2016_Oct_27_1332"
33,1,2,12,"BY",1,1.98700079718,"orange","banana","Stomach Ache","2016_Oct_27_1332"
33,1,2,13,"A",1,1.22124147555,"","apple","Stomach Ache","2016_Oct_27_1332"
33,1,2,14,"A",1,1.00058096298,"apple","","Stomach Ache","2016_Oct_27_1332"
33,1,2,15,"CY",0,1.578547101,"pear","banana","No Stomach Ache","2016_Oct_27_1332"
33,1,2,16,"AX",1,1.03342683264,"apple","strawberry","Stomach Ache","2016_Oct_27_1332"
33,1,3,17,"A",1,0.934671207098,"","apple","Stomach Ache","2016_Oct_27_1332"
33,1,3,18,"CY",0,1.25240790215,"banana","pear","No Stomach Ache","2016_Oct_27_1332"
33,1,3,19,"A",1,1.25050733169,"apple","","Stomach Ache","2016_Oct_27_1332"
33,1,3,20,"BY",1,1.12569327583,"banana","orange","Stomach Ache","2016_Oct_27_1332"
33,1,3,21,"BY",1,1.1253676503,"orange","banana","Stomach Ache","2016_Oct_27_1332"
33,1,3,22,"AX",1,2.34421405313,"apple","strawberry","Stomach Ache","2016_Oct_27_1332"
33,1,3,23,"AX",1,0.934564220253,"strawberry","apple","Stomach Ache","2016_Oct_27_1332"
33,1,3,24,"CY",0,1.06287058559,"pear","banana","No Stomach Ache","2016_Oct_27_1332"
33,1,4,25,"AX",1,2.03163511539,"strawberry","apple","Stomach Ache","2016_Oct_27_1332"
33,1,4,26,"A",1,1.12551817833,"","apple","Stomach Ache","2016_Oct_27_1332"
33,1,4,27,"CY",0,0.84343668865,"pear","banana","No Stomach Ache","2016_Oct_27_1332"
33,1,4,28,"AX",1,1.62691786978,"apple","strawberry","Stomach Ache","2016_Oct_27_1332"
33,1,4,29,"A",1,0.621926501859,"apple","","Stomach Ache","2016_Oct_27_1332"
33,1,4,30,"BY",1,2.43796089455,"orange","banana","Stomach Ache","2016_Oct_27_1332"
33,1,4,31,"CY",0,0.875301638851,"banana","pear","No Stomach Ache","2016_Oct_27_1332"
33,1,4,32,"BY",1,1.0631262341,"banana","orange","Stomach Ache","2016_Oct_27_1332"
34,1,1,1,"A",0,8.09456428792,"","orange","Stomach Ache","2016_Oct_27_1343"
34,1,1,2,"AX",1,6.33534949715,"orange","banana","Stomach Ache","2016_Oct_27_1343"
34,1,1,3,"BY",0,4.71932174056,"strawberry","pear","Stomach Ache","2016_Oct_27_1343"
34,1,1,4,"BY",1,3.15612591733,"pear","strawberry","Stomach Ache","2016_Oct_27_1343"
34,1,1,5,"AX",1,2.50090798899,"banana","orange","Stomach Ache","2016_Oct_27_1343"
34,1,1,6,"CY",1,3.28172107087,"apple","pear","No Stomach Ache","2016_Oct_27_1343"
34,1,1,7,"CY",0,2.12578269164,"pear","apple","No Stomach Ache","2016_Oct_27_1343"
34,1,1,8,"A",1,2.43806873728,"orange","","Stomach Ache","2016_Oct_27_1343"
34,1,2,9,"A",1,2.67242540233,"","orange","Stomach Ache","2016_Oct_27_1343"
34,1,2,10,"CY",0,3.25055398373,"pear","apple","No Stomach Ache","2016_Oct_27_1343"
34,1,2,11,"A",1,2.03173996462,"orange","","Stomach Ache","2016_Oct_27_1343"
34,1,2,12,"CY",0,2.0022324184,"apple","pear","No Stomach Ache","2016_Oct_27_1343"
34,1,2,13,"BY",1,2.31304677227,"strawberry","pear","Stomach Ache","2016_Oct_27_1343"
34,1,2,14,"BY",1,1.83133111289,"pear","strawberry","Stomach Ache","2016_Oct_27_1343"
34,1,2,15,"AX",1,2.15694729052,"orange","banana","Stomach Ache","2016_Oct_27_1343"
34,1,2,16,"AX",1,1.50046418002,"banana","orange","Stomach Ache","2016_Oct_27_1343"
34,1,3,17,"BY",1,1.46921405382,"strawberry","pear","Stomach Ache","2016_Oct_27_1343"
34,1,3,18,"AX",1,2.71948004351,"orange","banana","Stomach Ache","2016_Oct_27_1343"
34,1,3,19,"CY",0,1.53196249111,"pear","apple","No Stomach Ache","2016_Oct_27_1343"
34,1,3,20,"CY",0,2.34434697102,"apple","pear","No Stomach Ache","2016_Oct_27_1343"
34,1,3,21,"BY",1,2.21916670282,"pear","strawberry","Stomach Ache","2016_Oct_27_1343"
34,1,3,22,"A",1,0.719169035321,"orange","","Stomach Ache","2016_Oct_27_1343"
34,1,3,23,"AX",1,0.875599741004,"banana","orange","Stomach Ache","2016_Oct_27_1343"
34,1,3,24,"A",1,0.811981413048,"","orange","Stomach Ache","2016_Oct_27_1343"
34,1,4,25,"AX",1,0.658379950793,"banana","orange","Stomach Ache","2016_Oct_27_1343"
34,1,4,26,"CY",0,1.00051751803,"pear","apple","No Stomach Ache","2016_Oct_27_1343"
34,1,4,27,"AX",1,0.908114427468,"orange","banana","Stomach Ache","2016_Oct_27_1343"
34,1,4,28,"CY",0,0.906737904064,"apple","pear","No Stomach Ache","2016_Oct_27_1343"
34,1,4,29,"A",1,1.00072931475,"","orange","Stomach Ache","2016_Oct_27_1343"
34,1,4,30,"BY",1,0.906227539293,"pear","strawberry","Stomach Ache","2016_Oct_27_1343"
34,1,4,31,"A",1,0.625334061915,"orange","","Stomach Ache","2016_Oct_27_1343"
34,1,4,32,"BY",1,1.28162559122,"strawberry","pear","Stomach Ache","2016_Oct_27_1343"
35,1,1,1,"CY",1,10.016877162,"orange","strawberry","No Stomach Ache","2016_Oct_27_1450"
35,1,1,2,"AX",1,1.66042307671,"banana","apple","Stomach Ache","2016_Oct_27_1450"
35,1,1,3,"CY",1,2.20395347197,"strawberry","orange","No Stomach Ache","2016_Oct_27_1450"
35,1,1,4,"AX",1,1.90824889718,"apple","banana","Stomach Ache","2016_Oct_27_1450"
35,1,1,5,"BY",0,1.62581814546,"pear","strawberry","Stomach Ache","2016_Oct_27_1450"
35,1,1,6,"A",1,2.84748912323,"","apple","Stomach Ache","2016_Oct_27_1450"
35,1,1,7,"A",1,1.34420689987,"apple","","Stomach Ache","2016_Oct_27_1450"
35,1,1,8,"BY",1,2.59469152824,"strawberry","pear","Stomach Ache","2016_Oct_27_1450"
35,1,2,9,"BY",1,1.53207006003,"pear","strawberry","Stomach Ache","2016_Oct_27_1450"
35,1,2,10,"AX",1,1.00046900008,"banana","apple","Stomach Ache","2016_Oct_27_1450"
35,1,2,11,"CY",0,2.05034909095,"strawberry","orange","No Stomach Ache","2016_Oct_27_1450"
35,1,2,12,"AX",1,2.12553403969,"apple","banana","Stomach Ache","2016_Oct_27_1450"
35,1,2,13,"BY",1,2.03108867421,"strawberry","pear","Stomach Ache","2016_Oct_27_1450"
35,1,2,14,"A",1,0.844189327909,"","apple","Stomach Ache","2016_Oct_27_1450"
35,1,2,15,"A",1,0.597068251809,"apple","","Stomach Ache","2016_Oct_27_1450"
35,1,2,16,"CY",0,1.34452537214,"orange","strawberry","No Stomach Ache","2016_Oct_27_1450"
35,1,3,17,"CY",0,2.2508988909,"strawberry","orange","No Stomach Ache","2016_Oct_27_1450"
35,1,3,18,"BY",1,1.03162112017,"pear","strawberry","Stomach Ache","2016_Oct_27_1450"
35,1,3,19,"AX",1,1.12549889577,"apple","banana","Stomach Ache","2016_Oct_27_1450"
35,1,3,20,"A",1,0.655753602041,"","apple","Stomach Ache","2016_Oct_27_1450"
35,1,3,21,"AX",1,1.37544641318,"banana","apple","Stomach Ache","2016_Oct_27_1450"
35,1,3,22,"BY",1,2.25059503596,"strawberry","pear","Stomach Ache","2016_Oct_27_1450"
35,1,3,23,"CY",0,0.812919646967,"orange","strawberry","No Stomach Ache","2016_Oct_27_1450"
35,1,3,24,"A",1,0.624070902355,"apple","","Stomach Ache","2016_Oct_27_1450"
35,1,4,25,"AX",1,2.37914989679,"banana","apple","Stomach Ache","2016_Oct_27_1450"
35,1,4,26,"BY",1,1.06290510739,"pear","strawberry","Stomach Ache","2016_Oct_27_1450"
35,1,4,27,"BY",1,0.969428532058,"strawberry","pear","Stomach Ache","2016_Oct_27_1450"
35,1,4,28,"A",1,0.687939512543,"","apple","Stomach Ache","2016_Oct_27_1450"
35,1,4,29,"CY",0,1.03219213081,"orange","strawberry","No Stomach Ache","2016_Oct_27_1450"
35,1,4,30,"A",1,0.591747526079,"apple","","Stomach Ache","2016_Oct_27_1450"
35,1,4,31,"AX",1,0.750336433062,"apple","banana","Stomach Ache","2016_Oct_27_1450"
35,1,4,32,"CY",0,0.798295116052,"strawberry","orange","No Stomach Ache","2016_Oct_27_1450"
36,1,1,1,"CY",1,7.01670146314,"orange","pear","No Stomach Ache","2016_Oct_27_1458"
36,1,1,2,"A",0,3.93816623837,"apple","","Stomach Ache","2016_Oct_27_1458"
36,1,1,3,"AX",1,3.18805870716,"banana","apple","Stomach Ache","2016_Oct_27_1458"
36,1,1,4,"BY",0,2.3752683613,"orange","strawberry","Stomach Ache","2016_Oct_27_1458"
36,1,1,5,"A",0,1.87744122162,"","apple","Stomach Ache","2016_Oct_27_1458"
36,1,1,6,"BY",1,1.97182419198,"strawberry","orange","Stomach Ache","2016_Oct_27_1458"
36,1,1,7,"AX",0,1.28167099855,"apple","banana","Stomach Ache","2016_Oct_27_1458"
36,1,1,8,"CY",0,3.43809797196,"pear","orange","No Stomach Ache","2016_Oct_27_1458"
36,1,2,9,"AX",1,1.71927229012,"apple","banana","Stomach Ache","2016_Oct_27_1458"
36,1,2,10,"BY",1,1.28161906009,"orange","strawberry","Stomach Ache","2016_Oct_27_1458"
36,1,2,11,"BY",1,1.03232808155,"strawberry","orange","Stomach Ache","2016_Oct_27_1458"
36,1,2,12,"A",1,1.0629325544,"apple","","Stomach Ache","2016_Oct_27_1458"
36,1,2,13,"A",1,1.00028488366,"","apple","Stomach Ache","2016_Oct_27_1458"
36,1,2,14,"CY",0,3.32640676107,"orange","pear","No Stomach Ache","2016_Oct_27_1458"
36,1,2,15,"AX",1,1.34421168221,"banana","apple","Stomach Ache","2016_Oct_27_1458"
36,1,2,16,"CY",0,1.06150440383,"pear","orange","No Stomach Ache","2016_Oct_27_1458"
36,1,3,17,"CY",0,1.62576014362,"pear","orange","No Stomach Ache","2016_Oct_27_1458"
36,1,3,18,"BY",1,1.97026261874,"strawberry","orange","Stomach Ache","2016_Oct_27_1458"
36,1,3,19,"AX",1,1.2818831061,"banana","apple","Stomach Ache","2016_Oct_27_1458"
36,1,3,20,"AX",1,0.750480741262,"apple","banana","Stomach Ache","2016_Oct_27_1458"
36,1,3,21,"CY",0,1.8789760482,"orange","pear","No Stomach Ache","2016_Oct_27_1458"
36,1,3,22,"A",1,0.875634262804,"apple","","Stomach Ache","2016_Oct_27_1458"
36,1,3,23,"BY",1,2.50070334552,"orange","strawberry","Stomach Ache","2016_Oct_27_1458"
36,1,3,24,"A",1,1.15313805942,"","apple","Stomach Ache","2016_Oct_27_1458"
36,1,4,25,"BY",1,4.46892979206,"strawberry","orange","Stomach Ache","2016_Oct_27_1458"
36,1,4,26,"CY",0,2.12541414658,"orange","pear","No Stomach Ache","2016_Oct_27_1458"
36,1,4,27,"A",1,1.21921428689,"","apple","Stomach Ache","2016_Oct_27_1458"
36,1,4,28,"A",1,0.59618106531,"apple","","Stomach Ache","2016_Oct_27_1458"
36,1,4,29,"AX",1,2.03171695,"banana","apple","Stomach Ache","2016_Oct_27_1458"
36,1,4,30,"CY",0,2.41028790968,"pear","orange","No Stomach Ache","2016_Oct_27_1458"
36,1,4,31,"AX",1,1.59394460381,"apple","banana","Stomach Ache","2016_Oct_27_1458"
36,1,4,32,"BY",1,1.21912844852,"orange","strawberry","Stomach Ache","2016_Oct_27_1458"
37,1,1,1,"AX",1,7.50083241309,"strawberry","orange","Stomach Ache","2016_Oct_27_1525"
37,1,1,2,"A",1,8.71923749545,"","strawberry","Stomach Ache","2016_Oct_27_1525"
37,1,1,3,"A",1,3.18805038696,"strawberry","","Stomach Ache","2016_Oct_27_1525"
37,1,1,4,"BY",1,9.43050292181,"apple","pear","Stomach Ache","2016_Oct_27_1525"
37,1,1,5,"AX",1,2.43992988649,"orange","strawberry","Stomach Ache","2016_Oct_27_1525"
37,1,1,6,"CY",1,1.87550441618,"apple","banana","No Stomach Ache","2016_Oct_27_1525"
37,1,1,7,"CY",0,2.59432453872,"banana","apple","No Stomach Ache","2016_Oct_27_1525"
37,1,1,8,"BY",0,2.15887099109,"pear","apple","Stomach Ache","2016_Oct_27_1525"
37,1,2,9,"AX",1,1.72209503734,"strawberry","orange","Stomach Ache","2016_Oct_27_1525"
37,1,2,10,"CY",1,3.53182063182,"apple","banana","No Stomach Ache","2016_Oct_27_1525"
37,1,2,11,"BY",0,1.28169335169,"apple","pear","Stomach Ache","2016_Oct_27_1525"
37,1,2,12,"BY",1,1.96926152078,"pear","apple","Stomach Ache","2016_Oct_27_1525"
37,1,2,13,"CY",0,1.87551685655,"banana","apple","No Stomach Ache","2016_Oct_27_1525"
37,1,2,14,"A",1,1.00037787482,"strawberry","","Stomach Ache","2016_Oct_27_1525"
37,1,2,15,"AX",1,1.37584077124,"orange","strawberry","Stomach Ache","2016_Oct_27_1525"
37,1,2,16,"A",1,0.875829108525,"","strawberry","Stomach Ache","2016_Oct_27_1525"
37,1,3,17,"BY",0,3.31300812867,"apple","pear","Stomach Ache","2016_Oct_27_1525"
37,1,3,18,"CY",0,1.37729442283,"apple","banana","No Stomach Ache","2016_Oct_27_1525"
37,1,3,19,"CY",1,1.59427726571,"banana","apple","No Stomach Ache","2016_Oct_27_1525"
37,1,3,20,"A",1,0.687845588429,"","strawberry","Stomach Ache","2016_Oct_27_1525"
37,1,3,21,"AX",1,0.969427909935,"orange","strawberry","Stomach Ache","2016_Oct_27_1525"
37,1,3,22,"AX",1,1.2191219558,"strawberry","orange","Stomach Ache","2016_Oct_27_1525"
37,1,3,23,"A",1,0.784548871918,"strawberry","","Stomach Ache","2016_Oct_27_1525"
37,1,3,24,"BY",1,1.03165906318,"pear","apple","Stomach Ache","2016_Oct_27_1525"
37,1,4,25,"AX",1,1.03165906318,"strawberry","orange","Stomach Ache","2016_Oct_27_1525"
37,1,4,26,"CY",0,2.34436426987,"banana","apple","No Stomach Ache","2016_Oct_27_1525"
37,1,4,27,"AX",1,1.09409921337,"orange","strawberry","Stomach Ache","2016_Oct_27_1525"
37,1,4,28,"A",1,0.594117718516,"","strawberry","Stomach Ache","2016_Oct_27_1525"
37,1,4,29,"BY",1,4.78230619291,"apple","pear","Stomach Ache","2016_Oct_27_1525"
37,1,4,30,"CY",0,2.95995398331,"apple","banana","No Stomach Ache","2016_Oct_27_1525"
37,1,4,31,"A",1,0.71979388874,"strawberry","","Stomach Ache","2016_Oct_27_1525"
37,1,4,32,"BY",1,1.15665661381,"pear","apple","Stomach Ache","2016_Oct_27_1525"
38,1,1,1,"A",0,10.2747538602,"","orange","Stomach Ache","2016_Oct_27_1545"
38,1,1,2,"CY",0,6.25034654117,"pear","apple","No Stomach Ache","2016_Oct_27_1545"
38,1,1,3,"BY",0,5.66202030447,"apple","strawberry","Stomach Ache","2016_Oct_27_1545"
38,1,1,4,"BY",1,5.18869005423,"strawberry","apple","Stomach Ache","2016_Oct_27_1545"
38,1,1,5,"A",1,3.68555773306,"orange","","Stomach Ache","2016_Oct_27_1545"
38,1,1,6,"AX",1,2.85959524754,"orange","banana","Stomach Ache","2016_Oct_27_1545"
38,1,1,7,"AX",1,2.87839135248,"banana","orange","Stomach Ache","2016_Oct_27_1545"
38,1,1,8,"CY",0,3.31304988242,"apple","pear","No Stomach Ache","2016_Oct_27_1545"
38,1,2,9,"BY",1,4.87574933609,"apple","strawberry","Stomach Ache","2016_Oct_27_1545"
38,1,2,10,"BY",1,1.31296559912,"strawberry","apple","Stomach Ache","2016_Oct_27_1545"
38,1,2,11,"CY",0,2.53204521933,"pear","apple","No Stomach Ache","2016_Oct_27_1545"
38,1,2,12,"AX",1,1.75048851641,"orange","banana","Stomach Ache","2016_Oct_27_1545"
38,1,2,13,"AX",1,1.18826210662,"banana","orange","Stomach Ache","2016_Oct_27_1545"
38,1,2,14,"CY",0,1.84423112031,"apple","pear","No Stomach Ache","2016_Oct_27_1545"
38,1,2,15,"A",1,1.12581192632,"orange","","Stomach Ache","2016_Oct_27_1545"
38,1,2,16,"A",1,0.566589857917,"","orange","Stomach Ache","2016_Oct_27_1545"
38,1,3,17,"AX",1,1.44163973606,"orange","banana","Stomach Ache","2016_Oct_27_1545"
38,1,3,18,"CY",0,1.94135314156,"pear","apple","No Stomach Ache","2016_Oct_27_1545"
38,1,3,19,"A",1,1.094156245,"","orange","Stomach Ache","2016_Oct_27_1545"
38,1,3,20,"BY",1,1.71954566659,"apple","strawberry","Stomach Ache","2016_Oct_27_1545"
38,1,3,21,"BY",1,1.21028616815,"strawberry","apple","Stomach Ache","2016_Oct_27_1545"
38,1,3,22,"AX",1,0.938113989076,"banana","orange","Stomach Ache","2016_Oct_27_1545"
